time,seconds_elapsed,acc_z,acc_y,acc_x,gry_z,gry_y,gry_x,gravity_z,gravity_y,gravity_x,mag_z,mag_y,mag_x,qz,qy,qx,qw,roll,pitch,yaw,tacc_z,tacc_y,tacc_x,activity
1.70E+18,5.007298584,0.984565973,1.424111366,2.689744473,0.876620173,0.12356703,-0.976818681,2.134944677,9.223712921,2.556463957,12.44399929,-32.20800018,21.00839996,0.704838037,0.498475403,0.393426001,0.316135377,-0.891156912,-1.257882476,-2.967166662,1.33399868,11.5887394,-2.414058924,walk
1.70E+18,5.017150146,3.281117439,0.499781609,1.847813368,0.74180162,-0.003262276,-1.377679229,2.266816854,9.172225952,2.62720561,12.54160023,-32.01279831,21.35000038,0.700200379,0.497346401,0.398657501,0.32161805,-0.904444695,-1.262708664,-2.963053703,-0.553639352,10.75753212,-3.087040424,walk
1.70E+18,5.027007568,5.663114548,0.640714645,0.927280903,0.44646579,-0.125298038,-1.493323565,2.410828352,9.122673988,2.671163082,12.56599998,-31.85419846,21.56959915,0.69572103,0.496803433,0.402986884,0.326741785,-0.915165067,-1.268376231,-2.958482504,-1.466501236,9.209974289,-3.118146896,walk
1.70E+18,5.036859619,7.152839661,1.795419693,-0.086668015,0.085618101,-0.106656455,-1.256642103,2.536163807,9.086353302,2.678886414,12.65139961,-31.6711998,21.67939949,0.691661298,0.49753052,0.405665874,0.330912679,-0.922124326,-1.275531888,-2.954601049,-1.682154298,7.231409073,-2.330011129,walk
1.70E+18,5.046713623,6.839047432,2.852807045,-1.423537135,-0.235216767,0.04627106,-0.74552995,2.618248463,9.071401596,2.650444031,12.87099934,-31.45159912,21.9843998,0.688043654,0.499948323,0.406482548,0.333795637,-0.926015735,-1.284643054,-2.953095675,-1.341775298,5.592624664,-0.988534868,walk
1.70E+18,5.056565918,4.7654562,3.08573246,-2.787158251,-0.464907646,0.106523305,-0.143739879,2.643328667,9.079568863,2.597040176,13.27359962,-31.28079987,22.26499939,0.684701324,0.503917336,0.405857652,0.335456342,-0.929001689,-1.295559287,-2.955299854,-0.826720238,5.118546963,0.158823609,walk
1.70E+18,5.066421631,1.706386328,2.755442619,-3.925213814,-0.631749749,-0.024566937,0.380687654,2.611477852,9.107631683,2.530143261,13.59079933,-31.04899979,22.5821991,0.68142873,0.508837581,0.40467307,0.336123347,-0.934785068,-1.307407498,-2.962953329,-0.405284345,5.769992828,0.80069828,walk
1.70E+18,5.07627417,-1.252629876,2.259677887,-4.920084953,-0.729285181,-0.219105124,0.735676587,2.536508799,9.148565292,2.457696676,13.76159954,-30.81719971,22.91160011,0.678063512,0.514090121,0.403692365,0.336115599,-0.946314216,-1.319320083,-2.977100372,-0.196809664,6.895815849,1.193719387,walk
1.70E+18,5.086121094,-3.039425135,1.384933472,-5.523907661,-0.710643589,-0.398197412,0.907312214,2.438095093,9.193094254,2.39020896,13.76159954,-30.58539963,23.13119888,0.674493492,0.519175708,0.403296769,0.335956603,-0.963600338,-1.330811858,-2.996196032,-0.077168532,8.053044319,1.62502563,walk
1.70E+18,5.095973145,-3.839955091,-0.197719574,-5.506027699,-0.544334054,-0.631683171,0.945660591,2.329499245,9.233180046,2.343547106,13.84700012,-30.39019966,23.41180038,0.670615017,0.52372849,0.403704941,0.336164117,-0.985605717,-1.341658711,-3.017961502,-0.045762733,9.131011009,2.044068813,walk
1.70E+18,5.105838867,-3.940320253,-2.198509216,-4.699552536,-0.298132092,-0.923756778,0.899855614,2.218681335,9.264374733,2.327918053,13.96899986,-30.18280029,23.68019867,0.666249454,0.527387261,0.405249536,0.33726427,-1.011765957,-1.351704836,-3.040393591,-0.110668048,10.05553818,2.242972136,walk
1.70E+18,5.115692139,-3.492484331,-3.847260475,-3.362659931,-0.14140968,-1.203580141,0.760709524,2.115656853,9.286546707,2.335474014,14.0788002,-29.96319962,23.98519897,0.661318839,0.529978037,0.40807271,0.339495689,-1.041607618,-1.360872388,-3.062374353,-0.352642238,10.88913727,1.991426587,walk
1.70E+18,5.125542725,-2.887516737,-4.325756073,-2.223274231,-0.172301441,-1.429609299,0.528355598,2.029854536,9.302906036,2.346488953,14.2251997,-29.84119987,24.13159943,0.655871809,0.531499326,0.412097365,0.342806697,-1.074607015,-1.369110703,-3.083575487,-0.63050878,11.55284691,1.322931767,walk
1.70E+18,5.135395752,-2.392537594,-3.677987099,-1.582963824,-0.289610237,-1.634799838,0.310914874,1.959728003,9.316864967,2.350723267,14.24959946,-29.70699883,24.32679939,0.650082171,0.531929135,0.417142689,0.34703964,-1.109414101,-1.376197934,-3.103170872,-0.932303548,11.71795177,0.664307415,walk
1.70E+18,5.145235352,-2.119362831,-2.558413506,-1.185487509,-0.385547787,-1.77760756,0.190943018,1.897356749,9.33044529,2.34802413,14.27400017,-29.6093998,24.44879913,0.644592285,0.531668365,0.422323853,0.35138604,-1.142709494,-1.38192153,-3.120664835,-1.217348576,11.413764,0.333798766,walk
1.70E+18,5.155086914,-1.938693285,-1.411536217,-0.742610931,-0.45851624,-1.763759613,0.158453405,1.838134289,9.344906807,2.337602854,14.34719944,-29.51179886,24.52199936,0.640267074,0.531466663,0.42633152,0.354743063,-1.169918895,-1.386347413,-3.135602474,-1.346560955,10.96570778,0.309870541,walk
1.70E+18,5.164952148,-1.848995805,-0.348708153,-0.300224781,-0.537942648,-1.538329601,0.194138721,1.780650377,9.361609459,2.315154076,14.60339928,-29.38979912,24.6439991,0.637400806,0.532089531,0.428463876,0.356398195,-1.191194415,-1.39008522,3.132549524,-1.224527001,10.3788681,0.453439891,walk
1.70E+18,5.174805176,-1.856374264,0.554578781,-0.059885502,-0.647728264,-1.095925093,0.294337213,1.723981142,9.382268906,2.274049044,14.70099926,-29.24339867,24.70499992,0.635373354,0.533722699,0.429270208,0.356606066,-1.212447286,-1.393857002,3.112804413,-0.944267631,9.672387123,0.649950445,walk
1.70E+18,5.184662842,-2.037629843,1.360109329,-0.249417901,-0.752254248,-0.540006578,0.463309795,1.663670659,9.407879829,2.212324619,14.85960007,-29.07259941,24.79039955,0.633713961,0.536068678,0.429568827,0.355679125,-1.238972902,-1.397407293,3.084995031,-0.556032181,9.272188187,0.942173898,walk
1.70E+18,5.194516357,-2.246996403,1.990329742,-0.840073705,-0.816700816,-0.073101617,0.651456594,1.595480561,9.43753624,2.134888172,14.90839958,-28.90180016,24.87579918,0.632236004,0.538747728,0.429852277,0.353914678,-1.272017121,-1.400257945,3.049255133,0.045164529,9.468698502,1.409372568,walk
1.70E+18,5.204370117,-2.469414711,2.120985985,-1.417572379,-0.795928776,0.167840779,0.812972546,1.516579866,9.468450546,2.053977013,14.87179947,-28.68219948,25.07099915,0.630546927,0.541457057,0.430482328,0.35202235,-1.310732126,-1.402711391,3.00824523,0.984048307,9.995717049,2.247757673,walk
1.70E+18,5.214223389,-2.663790703,1.784180641,-1.673347473,-0.711708844,0.217906728,0.933410466,1.426746607,9.498192787,1.97967577,14.90839958,-28.51140022,25.26619911,0.628141344,0.544172525,0.431585044,0.350783467,-1.354668498,-1.405807972,2.963904381,1.678864241,10.25683403,3.126821041,walk
1.70E+18,5.224070557,-2.695204735,1.307004929,-1.631275892,-0.632815003,0.133686751,0.987803876,1.329944253,9.525608063,1.914268255,14.98159981,-28.26739883,25.58339882,0.624774039,0.546526074,0.433348924,0.350963444,-1.401186109,-1.40993607,2.920479059,1.889731646,9.859027863,3.258725405,walk
1.70E+18,5.23392334,-2.472084999,0.69480896,-1.429347157,-0.585944712,-0.096004128,0.975553691,1.230358362,9.550330162,1.856828213,15.04259968,-28.08440018,25.88839912,0.620583534,0.548244834,0.435761184,0.35272634,-1.447603703,-1.414897442,2.880934,1.856232166,9.36550808,2.595016241,walk
1.70E+18,5.243777832,-2.090332985,-0.032863617,-1.182104111,-0.556584239,-0.45312351,0.920627654,1.130421996,9.572224617,1.806941986,14.85960007,-27.84039879,26.15679932,0.615791976,0.549301505,0.438663363,0.355868727,-1.492689013,-1.420482397,2.845917702,1.38185513,8.901000977,1.356730461,walk
1.70E+18,5.253630859,-1.60192585,-0.450448036,-0.846009791,-0.534747005,-0.877951741,0.842799067,1.031658292,9.591362953,1.764037967,14.84739971,-27.58419991,26.41300011,0.610769331,0.550087154,0.441575199,0.359689146,-1.537186503,-1.426534772,2.81269145,0.620040178,8.673383713,0.364905447,walk
1.70E+18,5.263477295,-0.902824938,-0.269743919,-0.341737986,-0.510779262,-1.290463209,0.762839973,0.935245991,9.607872963,1.727569342,14.74979973,-27.37679863,26.71800041,0.605843365,0.550956964,0.444161952,0.363483667,-1.582904339,-1.432689905,2.777684212,-0.079561353,8.400302887,0.077467635,walk
1.70E+18,5.273329834,0.128398478,0.242563248,0.526458621,-0.472430855,-1.609167695,0.677088737,0.84422195,9.621554375,1.698051333,14.82299995,-27.18159866,27.02299881,0.601358056,0.552153885,0.446160078,0.366654754,-1.630446315,-1.438471079,2.738817453,-0.637687206,8.251648903,0.230608284,walk
1.70E+18,5.283184814,0.903895259,0.490870476,1.428540587,-0.414841682,-1.669952512,0.5714975,0.764356554,9.632248878,1.67509079,14.79859924,-26.9741993,27.14499855,0.597440124,0.553662539,0.447477669,0.369170487,-1.67807138,-1.443837285,2.697599888,-1.174277663,8.263612747,0.386440843,walk
1.70E+18,5.293037354,1.177991152,0.083981514,1.579476953,-0.340208799,-1.314430952,0.461179316,0.701854229,9.640304565,1.655988574,14.78639984,-26.6935997,27.31579971,0.594140351,0.555380583,0.448086262,0.371171594,-1.723203301,-1.448916554,2.656780005,-1.433001637,8.4146595,0.460618347,walk
1.70E+18,5.302871826,1.193907261,-0.415809631,0.93517673,-0.276760846,-0.742533982,0.418570012,0.653111935,9.646958351,1.637072444,14.77419949,-26.52279854,27.41339874,0.591446221,0.557145,0.44805634,0.372862339,-1.763358831,-1.453847766,2.619304657,-1.164706469,8.615956306,0.726520777,walk
1.70E+18,5.3127229,0.768102467,-0.885062218,-0.28206861,-0.230423212,-0.266041934,0.478223056,0.605407476,9.653539658,1.616490841,14.82299995,-26.29100037,27.54759979,0.589272201,0.558786869,0.447610438,0.374379992,-1.797695875,-1.458558083,2.58664155,-0.386141747,8.855537415,1.315753341,walk
1.70E+18,5.322608154,0.061515331,-1.115573883,-1.256119251,-0.147801086,0.04307536,0.57895416,0.551153302,9.659606934,1.599568605,14.79859924,-26.1079998,27.62080002,0.587401509,0.560208917,0.447097808,0.375804454,-1.828492999,-1.462834835,2.557264566,0.579362154,9.219545364,2.012962103,walk
1.70E+18,5.332462402,-0.575690925,-1.389439583,-1.533808231,-0.051863533,0.178493112,0.659978449,0.489899725,9.66438961,1.590587139,14.79859924,-25.93719864,27.8526001,0.585489213,0.561368108,0.446877539,0.377317667,-1.860139847,-1.466629624,2.527724743,1.147059321,9.60030365,2.652443886,walk
1.70E+18,5.342310059,-1.064734221,-1.537660599,-1.374547243,-0.018841309,0.150797054,0.713839293,0.421866089,9.668445587,1.585428119,14.90839958,-25.79080009,28.03559875,0.583354592,0.562452793,0.446991712,0.378870338,-1.897613287,-1.469982982,2.493038416,1.068096161,9.619445801,3.153141975,walk
1.70E+18,5.352163818,-1.523750544,-1.526446342,-1.2057302,-0.106789611,-0.058720969,0.754850745,0.345401824,9.673478127,1.573176503,14.90839958,-25.65659904,28.24300003,0.581097186,0.563649118,0.447267681,0.380233318,-1.942070842,-1.472797394,2.451341391,0.586540639,9.516554832,3.261118174,walk
1.70E+18,5.362014648,-1.701119184,-1.378261566,-1.105531573,-0.252793103,-0.405654043,0.733546078,0.26513201,9.680045128,1.548165917,14.96939945,-25.58339882,28.51140022,0.578948736,0.565047741,0.44743681,0.381234467,-1.990717769,-1.47509408,2.404659271,-0.043369912,9.439984322,3.165106058,walk
1.70E+18,5.37186792,-1.353825092,-1.181541443,-0.801647604,-0.391406566,-0.807047188,0.655717492,0.187106594,9.687718391,1.511123061,14.88399982,-25.42479897,28.68219948,0.577064455,0.566553056,0.447349757,0.381958723,-2.038828135,-1.477097869,2.357594252,-0.38135612,9.351150513,2.786741018,walk
1.70E+18,5.381707275,-0.501918912,-0.948040962,-0.164393902,-0.510246634,-1.116697073,0.576291084,0.114587359,9.696070671,1.464057326,14.83519936,-25.25399971,28.85299873,0.575458586,0.568050742,0.446988285,0.382579714,-2.083894253,-1.479075789,2.312914848,-0.254237413,9.31525898,2.42273283,walk
1.70E+18,5.39155957,0.531430006,-0.591496468,0.588519096,-0.602988482,-1.221156478,0.536344826,0.047375325,9.704782486,1.409023762,14.68879986,-25.05879974,29.06040001,0.573973119,0.569314718,0.446588635,0.383398235,-2.125149488,-1.481159091,2.272323608,0.198305175,9.327222824,2.302792788,walk
1.70E+18,5.401429932,1.163582444,-0.219094276,1.287843943,-0.651456594,-1.166296959,0.529420793,-0.016346149,9.713275909,1.349958539,14.70099926,-24.96119881,29.25559998,0.57242775,0.570259452,0.446390241,0.384533942,-2.164483547,-1.483236551,2.23456192,0.68225354,9.346364975,2.408077002,walk
1.70E+18,5.411283691,1.14598453,-0.207725525,1.847514153,-0.652588367,-0.998922288,0.528888226,-0.077134281,9.720918655,1.291577339,14.6644001,-24.86359978,29.36540031,0.570663869,0.570883632,0.446559727,0.38602978,-2.204581261,-1.485166192,2.197320223,0.890728235,9.483055115,2.499303341,walk
1.70E+18,5.421151611,0.720910847,-0.317430496,2.012971401,-0.638141155,-0.759045124,0.50172478,-0.132947832,9.727721214,1.234564066,14.55459976,-24.70499992,29.45079994,0.568595648,0.571173728,0.447213262,0.387891471,-2.246562004,-1.486798644,2.159697771,0.754337311,9.641280174,2.50169611,walk
1.70E+18,5.431006836,0.139473364,-0.39993,1.973919749,-0.628021419,-0.531484723,0.438809425,-0.181009263,9.733902931,1.178457975,14.45699978,-24.60739899,29.51179886,0.566363096,0.571255803,0.448182344,0.389913142,-2.289508343,-1.488078594,2.121967077,0.390030086,9.734601021,2.384148598,walk
1.70E+18,5.44086792,-0.15992108,-0.493646622,1.651463509,-0.612575591,-0.359316409,0.348730654,-0.21898368,9.739664078,1.123113036,14.24959946,-24.46100044,29.54839897,0.564275146,0.571188152,0.449247181,0.391809464,-2.328110218,-1.488959074,2.088549137,0.004486543,9.760921478,2.17358017,walk
1.70E+18,5.450723633,-0.004577398,-0.533961296,1.340922594,-0.58061856,-0.251661301,0.263978064,-0.247086391,9.74494648,1.070214868,14.27400017,-24.41219902,29.64599991,0.562676072,0.571016729,0.450166345,0.393301129,-2.356082201,-1.489493012,2.064810991,-0.292522579,9.782457352,1.828415632,walk
1.70E+18,5.46055249,0.470595598,-0.525635719,1.270193338,-0.533149123,-0.234084964,0.218705654,-0.269299746,9.749554634,1.021792889,14.27400017,-24.39999962,29.67039871,0.561736703,0.570679069,0.45085606,0.394342631,-2.368901968,-1.489857912,2.055035591,-0.455533624,9.882955551,1.512263894,walk
1.70E+18,5.470405762,0.976325393,-0.50947094,1.420669675,-0.492137671,-0.302259862,0.219238266,-0.290938318,9.753494263,0.977289021,14.34719944,-24.43659973,29.70699883,0.561496913,0.570101619,0.451246083,0.39507252,-2.364948273,-1.490406036,2.060950756,-0.577567577,10.13928699,1.380658627,walk
1.70E+18,5.480248535,1.210893393,-0.375665665,1.554767609,-0.471898228,-0.388610333,0.26291284,-0.316847116,9.756857872,0.93473053,14.33500004,-24.37559891,29.73139954,0.562247396,0.569759429,0.450681329,0.395143539,-2.34694171,-1.491518974,2.078053951,-0.632901609,10.50120163,1.555334687,walk
1.70E+18,5.490100586,1.105929852,-0.220049858,1.598215818,-0.450526983,-0.388610333,0.31730628,-0.348110676,9.759597778,0.894127429,14.32279968,-24.3512001,29.65819931,0.563718915,0.569573462,0.449375302,0.394802392,-2.31788969,-1.493157029,2.104148149,-0.625723124,10.77906799,1.910070658,walk
1.70E+18,5.49994458,0.776094794,-0.128760338,1.519694328,-0.428157091,-0.302259862,0.346067578,-0.382041037,9.761775017,0.85567522,14.3593998,-24.39999962,29.6337986,0.565854192,0.569546878,0.447469324,0.393950015,-2.2774508,-1.494910479,2.139674425,-0.625723124,10.8987093,2.264507532,walk
1.70E+18,5.509795898,0.422631174,-0.104264259,1.346100092,-0.40951553,-0.199398309,0.325295538,-0.41392228,9.763634682,0.818850458,14.40819931,-24.44879913,29.58499908,0.568305433,0.569531739,0.445436954,0.39274478,-2.22896409,-1.496241331,2.182426929,-0.69511497,10.89631653,2.559123755,walk
1.70E+18,5.519670166,0.152857512,-0.084498405,1.037835956,-0.397265345,-0.138147414,0.272499919,-0.440910846,9.765428543,0.78254205,14.46920013,-24.48539925,29.49959946,0.570514858,0.569406152,0.443906993,0.391453713,-2.182079792,-1.496582985,2.224347591,-0.798006356,10.90828037,2.779562712,walk
1.70E+18,5.529523926,0.011383504,0.014065742,0.758137763,-0.388210863,-0.147201896,0.209051982,-0.462102056,9.767278671,0.746396422,14.38379955,-24.59519958,29.40199852,0.572330236,0.569214225,0.443045765,0.390056044,-2.142508268,-1.495710254,2.259981394,-1.004088163,10.84128094,3.138785124,walk
1.70E+18,5.539363037,-0.09292239,0.267765045,0.662268162,-0.375428051,-0.231954485,0.164312199,-0.479743749,9.769081116,0.71082598,14.37160015,-24.69279861,29.31659889,0.57382673,0.568981647,0.442724258,0.388558865,-2.110465765,-1.493869543,2.288890362,-1.071087241,10.61366367,3.699303865,walk
1.70E+18,5.549215088,-0.130815208,0.626106262,0.87239027,-0.36630702,-0.371033967,0.147268459,-0.496681988,9.770719528,0.675823689,14.21299934,-24.80259895,29.21899986,0.575386703,0.568766415,0.442572743,0.386735409,-2.079975605,-1.491256714,2.316001177,-0.929910719,10.33819008,4.180859566,walk
1.70E+18,5.559059326,-0.105352998,0.900154114,1.261002779,-0.356187284,-0.518169284,0.150464162,-0.514636457,9.772074699,0.641945183,14.0788002,-24.98559952,29.08479881,0.577471554,0.568490207,0.442235351,0.384412974,-2.041617393,-1.488018036,2.349807739,-0.805184841,10.21854877,4.360620022,walk
1.70E+18,5.568910645,-0.086137235,1.016077042,1.647806644,-0.341274023,-0.609845877,0.156322941,-0.533493578,9.773118973,0.609851658,13.83479977,-25.16860008,28.96279907,0.580379069,0.56799674,0.441391826,0.381723881,-1.988069296,-1.484588385,2.397301674,-0.299701035,10.35972595,4.614558697,walk
1.70E+18,5.578812256,-0.138027787,1.010139465,1.969886184,-0.298132092,-0.589007258,0.140344456,-0.550720096,9.773827553,0.582556129,13.46879959,-25.32719994,28.85299873,0.584157407,0.566921115,0.439851314,0.379330218,-1.91185534,-1.481773734,2.466760159,0.473778874,10.87238789,4.933103085,walk
1.70E+18,5.588668457,-0.228351295,1.018798828,2.209662914,-0.227760136,-0.492537111,0.095538087,-0.563094616,9.774256706,0.563221455,13.12720013,-25.57119942,28.76759911,0.588793516,0.564634979,0.437508315,0.378280252,-1.799096584,-1.480303526,2.573675871,0.608076036,11.62463188,5.026422977,walk
1.70E+18,5.59847998,-0.429520786,0.948647499,2.578692436,-0.145670623,-0.361979485,0.018242115,-0.567721784,9.77454567,0.553474128,12.76119995,-25.8029995,28.69439888,0.594324827,0.560893834,0.434437245,0.378735214,-1.643594503,-1.478890538,2.724691629,0.17437695,12.41994572,4.808377266,walk
1.70E+18,5.608332275,-0.50255394,0.718336105,3.140648365,-0.084885754,-0.178093642,-0.084086835,-0.561703146,9.774979591,0.551953673,12.35859966,-26.03479958,28.63339996,0.600547671,0.555987,0.43109116,0.379975408,-1.465395331,-1.474858522,2.89937973,-0.49381876,12.97328663,3.917349815,walk
1.70E+18,5.618217041,-0.378985703,0.440317154,3.619749546,-0.070505112,0.040412277,-0.189078867,-0.544061959,9.775848389,0.554226041,11.76079941,-26.29100037,28.56019974,0.607086718,0.550470173,0.427739888,0.381401211,-1.295958638,-1.467282891,3.065753222,-1.020837903,13.15304661,2.666800737,walk
1.70E+18,5.628072266,-0.281898379,0.317903519,3.795467377,-0.071037725,0.258452177,-0.274364084,-0.516851008,9.777107239,0.558045387,11.16300011,-26.51059914,28.47480011,0.613384306,0.54474622,0.424686551,0.382952482,-1.155258179,-1.457131267,-3.078941345,-1.181456208,12.89910889,1.840379715,walk
1.70E+18,5.637920898,0.189084798,0.456212044,4.041805267,-0.049200449,0.452457726,-0.322832197,-0.482731014,9.77842617,0.565439582,10.51639938,-26.80340004,28.35280037,0.619118094,0.53905189,0.422148138,0.384586513,-1.047063112,-1.445643187,-2.971829176,-0.972981513,12.30479145,1.430907965,walk
1.70E+18,5.647775391,0.926574349,0.964922905,4.347634792,-0.006058513,0.530286312,-0.316973388,-0.446799934,9.779407501,0.577879131,9.979599953,-27.05959892,28.30399895,0.623971105,0.533238649,0.420628279,0.386508018,-0.968730092,-1.433600426,-2.892250776,-0.793220699,11.56241798,1.191326618,walk
1.70E+18,5.657598145,1.031049609,1.712035179,4.422966003,0.051530648,0.462044835,-0.250928968,-0.417307705,9.779657364,0.595448196,9.247599602,-27.38899994,28.12100029,0.627942502,0.527140319,0.420341164,0.388747454,-0.914759517,-1.42126298,-2.834283829,-0.867697299,10.94178009,0.743270516,walk
1.70E+18,5.667449463,0.578211784,2.501158714,4.18101263,0.123500451,0.349596173,-0.160850182,-0.398039311,9.779018402,0.618663669,8.515600204,-27.66959953,27.91359901,0.631135404,0.520539224,0.421465814,0.3912462,-0.881258667,-1.408477902,-2.793797493,-0.709471941,10.64237785,0.237786755,walk
1.70E+18,5.677315918,-0.100741237,3.047771454,3.261078119,0.199731186,0.278158963,-0.09314131,-0.387262523,9.777648926,0.646535933,7.759199619,-27.96239853,27.73060036,0.633698046,0.513079286,0.424276441,0.393911093,-0.866328716,-1.394665837,-2.768507481,-0.326321185,10.33340454,0.065503523,walk
1.70E+18,5.687168945,-0.63496995,3.221042633,1.97571218,0.294603497,0.302126706,-0.069706187,-0.379828781,9.775645256,0.680353045,7.002799988,-28.21859932,27.47439957,0.635695279,0.504516184,0.428928345,0.396705747,-0.867591321,-1.379474998,-2.755739927,0.035593238,9.813564301,-0.016151553,walk
1.70E+18,5.697017578,-0.807388306,2.962083817,1.105757236,0.400128156,0.429555207,-0.111782894,-0.367813081,9.773072243,0.722619236,6.441599846,-28.49919891,27.21819878,0.637177527,0.494953007,0.435253292,0.399475724,-0.881772101,-1.36302042,-2.752707481,0.315852582,9.368199348,-0.233898416,walk
1.70E+18,5.706869873,-0.624816179,2.364822388,0.645526052,0.479021966,0.588874102,-0.234883875,-0.342193931,9.770232201,0.771914124,6.063399792,-28.76759911,26.93759918,0.638375938,0.484598547,0.442810774,0.401944101,-0.904686689,-1.345296383,-2.756403208,0.519541621,9.046963692,-0.593420029,walk
1.70E+18,5.716729248,-0.496478528,1.620533943,0.355034888,0.489141703,0.665104866,-0.482217669,-0.291624725,9.767816544,0.821642339,5.709599972,-29.0481987,26.65699959,0.639356554,0.473785073,0.450893492,0.404284507,-0.929485679,-1.326938272,-2.76091218,0.596111953,8.730812073,-0.986142039,walk
1.70E+18,5.72658252,-0.663364768,0.998927116,-0.135458052,0.422498047,0.59473294,-0.911306858,-0.200569734,9.766525269,0.863216579,5.416800022,-29.37759972,26.36419868,0.640129745,0.463003755,0.458725035,0.406734228,-0.950751781,-1.30898726,-2.761851072,0.643968403,8.639883995,-1.343270779,walk
1.70E+18,5.736404785,-0.642800093,0.69918251,-0.676094353,0.370834261,0.481751621,-1.381407499,-0.065461621,9.765262604,0.897634208,5.392399788,-29.64599991,26.04699898,0.640989661,0.452944309,0.465585411,0.408905745,-0.96712929,-1.292141557,-2.759971619,0.701396108,8.745168686,-1.764706731,walk
1.70E+18,5.746254883,-0.426812619,0.393184662,-0.885844409,0.403856456,0.414575368,-1.68040514,0.09882842,9.761554718,0.934170008,5.465600014,-29.90219879,25.70539856,0.642212749,0.444352597,0.470909029,0.410314828,-0.978601933,-1.277097583,-2.757348061,0.828514814,9.224330902,-2.104786634,walk
1.70E+18,5.75613916,-0.244474888,-0.118546486,-1.009093523,0.458183348,0.362911582,-1.79711473,0.275001884,9.754157066,0.975275636,5.72179985,-30.2071991,25.35159874,0.643859804,0.437689245,0.47458148,0.41066426,-0.986543894,-1.264339209,-2.75629878,1.115952611,9.844670296,-2.239083767,walk
1.70E+18,5.765992676,-0.141301453,-0.55141449,-1.270021796,0.481685072,0.276561111,-1.785929799,0.449005336,9.743368149,1.017619252,5.929199696,-30.47559929,24.9489994,0.646267235,0.433194369,0.476545393,0.409372449,-0.99263376,-1.253517151,-2.759750128,1.386640668,10.24726295,-2.157727718,walk
1.70E+18,5.775838135,-0.10367626,-0.856168747,-1.672262669,0.489141703,0.121969178,-1.690524817,0.612210155,9.72994709,1.060049176,6.148799896,-30.70739937,24.57079887,0.650071383,0.430785805,0.47683087,0.405540496,-0.998963773,-1.243240237,-2.771278858,1.693221092,10.38365364,-1.297508121,walk
1.70E+18,5.785690674,-0.176756084,-1.153191566,-2.110872507,0.515239894,-0.112515241,-1.553043127,0.759592056,9.714501381,1.105383754,6.221999645,-30.91479874,24.11940002,0.655664206,0.429699361,0.475772172,0.398878098,-1.006303787,-1.231614351,-2.791289568,1.928016901,10.35015392,-0.047258247,walk
1.70E+18,5.795554932,-0.262358665,-1.222837448,-2.520565033,0.572296441,-0.398197412,-1.424016833,0.891157329,9.697216034,1.157687187,6.380599976,-31.13439941,23.7656002,0.66286087,0.4286834,0.473941565,0.390160769,-1.013194919,-1.217223763,-2.815551043,2.045265198,10.48445129,1.016351461,walk
1.70E+18,5.805408691,-0.323554337,-1.093948364,-3.007882595,0.683147252,-0.723359823,-1.320090055,1.008231401,9.677744865,1.222751975,6.575799942,-31.32959938,23.41180038,0.671054184,0.427332997,0.471362591,0.380644321,-1.016072989,-1.20091486,-2.838184834,2.083550215,10.61366367,1.840379715,walk
1.70E+18,5.815257568,-0.302642524,-0.589004517,-3.435671806,0.875022352,-1.083674908,-1.245989799,1.112841606,9.654932022,1.309296012,6.783199787,-31.52479935,23.14340019,0.6795156,0.42631197,0.467497915,0.371432871,-1.011632442,-1.185426474,-2.855202675,2.071586132,10.57537842,2.461018085,walk
1.70E+18,5.825110596,-0.109618664,0.060299873,-3.684621334,1.109573364,-1.452511787,-1.187401891,1.205902457,9.627715111,1.422420263,6.990599632,-31.73219872,22.875,0.687732399,0.425809532,0.462462068,0.363096714,-1.000557423,-1.171984315,-2.866225958,1.788933992,10.47009468,2.717349291,walk
1.70E+18,5.834954346,0.079538941,0.495503426,-3.74442935,1.333938003,-1.792520881,-1.125019193,1.286163568,9.595730782,1.561452746,7.124799728,-31.86639977,22.59440041,0.695228159,0.425544292,0.457080543,0.355875283,-0.986550212,-1.160563707,-2.873063564,1.331605792,10.52512932,2.669193745,walk
1.70E+18,5.844806641,0.316209912,0.669625282,-3.049677849,1.525813103,-2.007897615,-1.066364884,1.354943395,9.55837059,1.723973989,7.319999695,-32.03720093,22.37479973,0.701585531,0.425116122,0.452277631,0.349998444,-0.973105848,-1.150832176,-2.877154112,0.864407182,10.59212875,2.755634308,walk
1.70E+18,5.854660889,0.488257527,0.677793503,-1.975591421,1.590326309,-2.119281054,-1.046658039,1.416526437,9.516507149,1.897346258,7.527400017,-32.18359756,22.20400047,0.70690769,0.424496174,0.448266596,0.345168889,-0.961616755,-1.142355323,-2.880034924,0.529112935,10.4533453,3.028715372,walk
1.70E+18,5.864513428,0.546053171,0.855052948,-1.083513856,1.511432528,-2.109694004,-1.053049445,1.474897981,9.472473145,2.065752983,7.832399845,-32.30559921,22.11859894,0.711563528,0.423820049,0.444658935,0.341075212,-0.950909138,-1.134857655,-2.881770372,0.291924357,9.897313118,3.584448338,walk
1.70E+18,5.874394043,0.526721716,1.026890755,-0.41752243,1.376547337,-1.884730101,-1.021092415,1.531242847,9.428371429,2.220694542,8.149600029,-32.37879944,22.04539871,0.716126323,0.423409373,0.440714777,0.337132126,-0.939067304,-1.128070951,-2.88275528,0.045164529,9.018249512,4.293621063,walk
1.70E+18,5.884249512,0.459988832,1.028331757,0.065150023,1.216163278,-1.471153378,-0.926220119,1.584665537,9.386726379,2.35554409,8.552199364,-32.35440063,22.03319931,0.720945895,0.423531055,0.436019748,0.332784057,-0.92561239,-1.121808171,-2.884176254,0.016450657,8.266005516,4.386941433,walk
1.70E+18,5.894094238,0.128930449,0.958187103,0.206716299,1.055179834,-0.948257148,-0.756182313,1.631837368,9.349741936,2.467757225,8.845000267,-32.25679779,22.03319931,0.725884557,0.424286962,0.430688202,0.327993721,-0.911299944,-1.116323709,-2.886668921,0.349352092,7.67916584,3.871886253,walk
1.70E+18,5.903948975,-0.369849801,1.044160843,0.062067747,0.980547011,-0.29320538,-0.52915448,1.671977639,9.317178726,2.56223917,9.137800217,-32.08599854,22.17959976,0.730447292,0.425719321,0.425260723,0.323052764,-0.898046017,-1.112244368,-2.890778303,0.773479939,7.39412117,3.0981071,walk
1.70E+18,5.91379126,-0.873483717,1.141489983,0.055157423,1.083408594,0.466305763,-0.283951163,1.707453847,9.285244942,2.653150082,9.442799568,-31.91519928,22.35039902,0.734039307,0.427819103,0.420315683,0.318577796,-0.887204826,-1.110404611,-2.895915985,1.007976532,7.168896675,2.197508574,walk
1.70E+18,5.923644531,-1.248014212,1.038586617,0.222342253,1.353112221,1.175750971,-0.111250274,1.745569825,9.247937202,2.756631613,9.784399986,-31.71999931,22.61879921,0.736335337,0.430646509,0.416152269,0.314914554,-0.879458606,-1.111366153,-2.901754856,1.103988528,7.022934437,1.43808639,walk
1.70E+18,5.933489258,-1.537481785,0.530647278,0.650954485,1.671883225,1.634134054,-0.108054578,1.796773195,9.200027466,2.881229877,10.13819981,-31.53699875,22.83839989,0.73728472,0.434276044,0.412809223,0.312096268,-0.874982893,-1.115299582,-2.908388138,1.223629713,7.073183537,0.81056869,walk
1.70E+18,5.943341797,-1.855865598,-0.290295601,1.225501299,1.806169152,1.888325214,-0.222633705,1.867260933,9.143427849,3.013543606,10.43099976,-31.23199844,23.167799,0.736969173,0.43860653,0.41027686,0.310118735,-0.87365216,-1.121949434,-2.915685177,1.46321106,7.197610378,0.324227482,walk
1.70E+18,5.953178955,-1.974005461,-0.983327866,1.206287622,1.640392303,2.0957129,-0.327625722,1.955520749,9.087424278,3.124905586,10.76039982,-30.92700005,23.4605999,0.735575497,0.443510294,0.408370763,0.308966994,-0.874612153,-1.13094914,-2.923080921,1.820339799,7.101897717,0.237786755,walk
1.70E+18,5.963029541,-1.742245674,-1.51534605,0.610402584,1.355775356,2.180398941,-0.400128156,2.055769205,9.037053108,3.205599546,10.96780014,-30.65859985,23.69239998,0.733294845,0.448920906,0.40686065,0.308566242,-0.876999259,-1.142006874,-2.930185556,2.433500528,6.821638107,0.376869559,walk
1.70E+18,5.972900391,-1.420399666,-1.750986576,-0.21944356,1.102050185,2.038123608,-0.436412662,2.15725565,8.992973328,3.262369871,11.33379936,-30.42679977,23.93639946,0.730234563,0.45472452,0.40565744,0.308909565,-0.880352199,-1.154849291,-2.936654568,3.003590584,6.428916454,0.793519795,walk
1.70E+18,5.982753174,-1.278608918,-1.93142271,-1.161701202,0.919762135,1.731669426,-0.435880035,2.250061512,8.954487801,3.305262327,11.39480019,-30.26819992,23.94859886,0.726639032,0.460849494,0.404563785,0.309744447,-0.88421458,-1.169013381,-2.942721844,3.487539053,6.00239563,1.136291623,walk
1.70E+18,5.992608643,-1.263608336,-2.036347389,-1.955319524,0.79825902,1.408104897,-0.41450879,2.331237793,8.920271873,3.341326714,11.65100002,-30.10960007,24.0705986,0.722786069,0.467223793,0.403323442,0.310825437,-0.887779117,-1.184025884,-2.948356152,3.899403572,5.614160061,1.229611754,walk
1.70E+18,6.00246167,-1.217602849,-1.94803524,-2.610034943,0.70232147,1.221023321,-0.401726007,2.405668974,8.889473915,3.370517969,11.83399963,-30.09739876,24.0340004,0.719115674,0.473658472,0.401648551,0.311767161,-0.890047491,-1.198988676,-2.95357585,4.08873558,5.338686466,1.061815023,walk
1.70E+18,6.012310303,-1.052607298,-1.788039207,-3.113939285,0.631949484,1.254045606,-0.392138898,2.480983973,8.861166,3.390405416,11.8828001,-30.02419853,24.0340004,0.716152668,0.479938716,0.399173707,0.312161058,-0.889465094,-1.21288836,-2.958007336,4.024129391,5.326722145,0.978066266,walk
1.70E+18,6.022163086,-0.773546219,-1.850268841,-3.208319187,0.594666362,1.444389462,-0.347931743,2.559696674,8.834681511,3.400990725,11.8828001,-30.13399887,23.85099983,0.714267194,0.485614806,0.395878404,0.311898857,-0.884925067,-1.224586368,-2.960638762,3.834797382,5.429912567,1.023529887,walk
1.70E+18,6.032018311,-0.237365723,-2.099961758,-3.068033457,0.548794746,1.618621588,-0.256787747,2.637758493,8.811203003,3.402249336,11.71199989,-30.24379921,23.71679878,0.713623405,0.49028039,0.392112613,0.310828656,-0.877526999,-1.233071089,-2.962147951,3.619144201,5.631208897,1.112363458,walk
1.70E+18,6.041871338,0.266795874,-2.468103886,-2.641304255,0.460380405,1.64052546,-0.109652422,2.704995394,8.793568611,3.39507699,11.65100002,-30.31699944,23.66799927,0.714062154,0.493489236,0.388829708,0.308861017,-0.871727109,-1.237449765,-2.965487957,3.391526937,5.985645771,1.282253861,walk
1.70E+18,6.051719971,0.705504656,-2.879297256,-2.278825521,0.299929678,1.489129186,0.078494355,2.75185442,8.785568237,3.378088713,11.40699959,-30.36579895,23.57040024,0.715406656,0.494939178,0.386835009,0.305920273,-0.871600389,-1.237126946,-2.973495007,3.157030344,6.577271461,1.505085468,walk
1.70E+18,6.06157251,1.098979473,-3.264070511,-2.154300451,0.096337013,1.240730166,0.29486981,2.772553682,8.78975296,3.350162983,11.45580006,-30.43899918,23.64360046,0.717246115,0.494510144,0.386694998,0.302464485,-0.878648877,-1.232417226,-2.98602581,2.924627542,7.616952896,1.775773525,walk
1.70E+18,6.071425293,1.298052788,-3.548679829,-2.279547215,-0.11264839,0.97475481,0.518768489,2.765335321,8.806789398,3.31115675,11.3093996,-30.5,23.61919975,0.718863547,0.492334902,0.388837934,0.299410373,-0.892729878,-1.224650979,-3.000848293,2.730509758,9.092427254,2.307578325,walk
1.70E+18,6.081278076,1.269479752,-3.581186295,-2.311252356,-0.303990871,0.720030963,0.716502368,2.732078075,8.835282326,3.262501955,11.34599972,-30.45119858,23.70459938,0.719810545,0.488844663,0.392841637,0.297622412,-0.910058737,-1.215628147,-3.013603926,2.692224503,10.63041401,3.057429075,walk
1.70E+18,6.091114014,1.137371302,-3.508302212,-2.203798056,-0.486278862,0.511045516,0.870029092,2.677841902,8.873222351,3.203979731,11.34599972,-30.36579895,23.86319923,0.720396757,0.484915704,0.397153646,0.296907842,-0.924930632,-1.20685041,-3.02159977,2.876471996,12.20189953,3.936492443,walk
1.70E+18,6.100965088,0.995137691,-3.345222473,-2.042663574,-0.661110222,0.343737394,0.981945097,2.607283354,8.918851852,3.134734392,11.43139935,-30.23159981,24.0583992,0.721060753,0.481393725,0.400436997,0.29661715,-0.934135854,-1.199288845,-3.025020599,3.080160856,13.81884956,4.633700848,walk
1.70E+18,6.1108396,0.853798866,-3.035506248,-1.789798737,-0.821494401,0.20618917,1.065632463,2.52359724,8.970477104,3.054895878,11.59000015,-30.03639984,24.24139977,0.72156316,0.478793681,0.402688235,0.296555936,-0.939611197,-1.193866253,-3.0262537,3.166601658,14.83938885,5.239683151,walk
1.70E+18,6.120692871,0.713765144,-2.493436813,-1.475721717,-0.948922873,0.121436566,1.123155117,2.430988312,9.025699615,2.966046095,11.73639965,-29.9144001,24.39999962,0.721105516,0.477533907,0.404817313,0.296801507,-0.946982086,-1.191716194,-3.029425144,3.204886913,14.68834209,6.030212402,walk
1.70E+18,6.130568359,0.579201221,-1.506954193,-1.106601238,-1.031012416,0.127295345,1.145591497,2.334613085,9.082253456,2.869259596,12.00479984,-29.81679916,24.54640007,0.719052672,0.47787413,0.407560825,0.297479033,-0.960513473,-1.193637967,-3.037460089,3.47557497,13.7231369,6.942774773,walk
1.70E+18,6.140423828,0.477949858,-0.085660934,-0.473630428,-1.047523499,0.243538901,1.117296338,2.242311954,9.136581421,2.768625021,12.05359936,-29.70699883,24.77820015,0.715518057,0.479902536,0.4106296,0.298514336,-0.97955054,-1.199659109,-3.050308943,3.638286829,12.30000591,7.596912861,walk
1.70E+18,6.150259766,0.51772356,1.399805069,0.375788927,-0.998988867,0.46683836,1.015499949,2.163723469,9.185220718,2.668412209,12.0291996,-29.58499908,24.9489994,0.711162806,0.483474433,0.412813663,0.300141245,-0.997582257,-1.209566593,-3.063054323,3.552145243,10.74317551,7.199106216,walk
1.70E+18,6.160113281,0.75680232,2.923797607,1.346429348,-0.873224795,0.723226666,0.825755298,2.107616663,9.224778175,2.575231552,11.8949995,-29.47519875,25.11979866,0.706917763,0.48842299,0.412757903,0.30222705,-1.007388949,-1.222756267,-3.070875406,3.794119358,9.511769295,5.960820198,walk
1.70E+18,6.169963135,0.989049911,4.500884056,2.116725206,-0.653120995,0.90498203,0.588075221,2.076515436,9.252680779,2.499274969,11.83399963,-29.42639923,25.24180031,0.703644931,0.494176179,0.410064429,0.304172486,-1.005738735,-1.237318754,-3.071971655,4.620540619,8.723632813,4.518546581,walk
1.70E+18,6.179816406,1.083775997,5.492657661,2.762377262,-0.298664719,0.928949773,0.370035321,2.064885139,9.266819,2.456153393,11.51679993,-29.26779938,25.40040016,0.701893747,0.499463201,0.405837417,0.305250198,-0.995607615,-1.249744534,-3.068310022,5.593223095,8.80738163,3.275475025,walk
1.70E+18,6.189683105,1.116594076,5.328204155,3.546976805,0.148000807,0.80904448,0.184551626,2.067122459,9.26578331,2.458182335,11.22399998,-29.20679855,25.51019859,0.701372027,0.503079772,0.402245104,0.305265367,-0.985982299,-1.257345438,-3.065349102,5.485246658,10.24247742,2.889632463,walk
1.70E+18,6.199537842,1.373790264,4.36511898,4.407549381,0.563774586,0.52868849,0.032156721,2.077572584,9.250554085,2.506260633,10.93120003,-29.0481987,25.64439964,0.701159835,0.504324198,0.401042461,0.305281699,-0.982796729,-1.259984374,-3.064376354,3.865904093,12.07986641,2.932703257,walk
1.70E+18,6.209370361,1.524711132,2.957632065,4.972732544,0.837206602,0.029759947,-0.080891132,2.087078571,9.224993706,2.591137648,10.51639938,-28.88959885,25.8029995,0.700265348,0.503299713,0.402695119,0.306846082,-0.985580802,-1.259762049,-3.061798334,1.851446509,13.3085804,2.480160713,walk
1.70E+18,6.219222656,1.431081057,1.424602509,4.470430374,0.901653171,-0.506984353,-0.186948389,2.092863798,9.194598198,2.692522287,10.26019955,-28.69439888,25.87619972,0.698001623,0.500864029,0.406836152,0.310504973,-0.993731439,-1.259238243,-3.056913376,0.358923405,13.99143219,1.402194023,walk
1.70E+18,6.229089111,1.663910389,0.220610619,3.134467125,0.808911324,-0.7334795,-0.272766232,2.101089239,9.164309502,2.787695408,10.21140003,-28.52359962,26.05920029,0.694311202,0.498096466,0.412644327,0.3155258,-1.007837534,-1.259926081,-3.052970648,-0.546460867,14.2381916,-0.200398892,walk
1.70E+18,6.238943115,2.474486351,-0.541650772,1.616112471,0.644266248,-0.632748425,-0.300994903,2.116477251,9.137652397,2.862556458,10.23579979,-28.34059906,26.21780014,0.689685285,0.495925337,0.418958396,0.320727527,-1.02700758,-1.262354612,-3.053004503,-0.802792013,13.06660652,-2.126322031,walk
1.70E+18,6.248803467,3.433132172,-0.439102173,0.320300579,0.451791942,-0.495732814,-0.215177074,2.129980564,9.1182127,2.914063215,10.13819981,-28.09659958,26.4007988,0.684726059,0.494884789,0.424752593,0.325306803,-1.048900366,-1.266542673,-3.057761431,-0.47706902,10.43629551,-3.539881945,walk
1.70E+18,6.258657959,3.334690809,0.999923706,-0.098563194,0.248731911,-0.508049548,0.031091489,2.119889975,9.110431671,2.945588589,10.34560013,-27.93799973,26.60820007,0.679882526,0.495200694,0.429329067,0.328956723,-1.070896387,-1.272429824,-3.066355467,-0.029012974,7.992925167,-3.326621771,walk
1.70E+18,6.268486816,1.764573574,2.823280334,-0.071959972,0.038747851,-0.630617976,0.386013806,2.069801092,9.117388725,2.959650278,10.34560013,-27.66959953,26.92539978,0.6755476,0.496788502,0.432206333,0.331714153,-1.089650154,-1.279758096,-3.076213121,0.404387027,6.213263035,-1.609173179,walk
1.70E+18,6.278338623,-0.163163066,4.021951675,-0.520524025,-0.191542208,-0.719631493,0.713839293,1.982451797,9.138969421,2.952882767,10.32119942,-27.48659897,27.16939926,0.672084928,0.499522746,0.433092117,0.333481759,-1.102905273,-1.288075924,-3.085724354,0.567398071,5.348257542,0.182751834,walk
1.70E+18,6.288252197,-1.552861214,4.660884857,-1.559561849,-0.506518304,-0.599193573,0.879083574,1.879686475,9.173757553,2.911930084,10.4187994,-27.30360031,27.42560005,0.669395983,0.503081441,0.432399094,0.334438503,-1.111502409,-1.296969891,-3.09468627,0.433100909,5.307579517,1.169791222,walk
1.70E+18,6.298110596,-2.364817142,4.85430336,-3.078797817,-0.866833389,-0.230889261,0.87801832,1.786260009,9.218672752,2.827673912,10.56519985,-27.09619904,27.75499916,0.667009294,0.506991565,0.43100968,0.335095197,-1.118149638,-1.306186795,-3.103398085,0.0212363,5.765207291,1.500299811,walk
1.70E+18,6.307990723,-2.553234816,3.630469322,-4.887191772,-1.083208799,0.266441405,0.741535366,1.718852162,9.266399384,2.711047649,10.62619972,-26.91320038,27.93799973,0.664370358,0.510811687,0.42984435,0.336031646,-1.125988483,-1.315620303,-3.112430573,-0.532103956,6.582056999,1.581655741,walk
1.70E+18,6.317870361,-2.190929413,0.962949753,-6.18333292,-0.969162345,0.653919935,0.519301116,1.683458805,9.305570602,2.596673727,10.62619972,-26.74239922,28.14539909,0.661020815,0.514166474,0.429627508,0.337793618,-1.137339234,-1.325232387,-3.121940851,-0.908375323,7.90917635,1.646561027,walk
1.70E+18,6.327750488,-1.727156401,-1.496416569,-5.891316414,-0.564640105,0.661376536,0.304456919,1.669280887,9.328822136,2.521301985,10.83360004,-26.66919899,28.35280037,0.656822503,0.516860008,0.430657566,0.340549618,-1.153343558,-1.334839582,-3.132258892,-1.22691977,9.557232857,1.761416554,walk
1.70E+18,6.337630615,-1.285966396,-3.273879051,-4.144672394,-0.161116496,0.213113189,0.10405995,1.663640499,9.336771011,2.4954772,11.01659966,-26.59599876,28.51140022,0.651918769,0.518765569,0.43291083,0.344198227,-1.17373085,-1.34403789,3.13990283,-1.356132269,11.11436176,1.756630898,walk
1.70E+18,6.347510742,-1.115173817,-4.126717567,-2.356277466,0.005193011,-0.531484723,-0.087815151,1.657834768,9.336103439,2.501831055,11.37039948,-26.63259888,28.56019974,0.64678365,0.52007097,0.435881913,0.348143727,-1.197245598,-1.352398634,3.127599478,-1.205384374,12.03888893,1.634596944,walk
1.70E+18,6.357390381,-1.229385376,-4.155069828,-1.384211659,-0.031091489,-1.285137057,-0.165643737,1.640056014,9.334529877,2.519358158,11.65100002,-26.65699959,28.54800034,0.641953588,0.521024942,0.439031452,0.35168165,-1.222663283,-1.359435081,3.113150597,-1.020837903,12.01974678,1.50269258,walk
1.70E+18,6.367270508,-1.600088,-3.689958096,-1.06869781,-0.119572408,-1.779738069,-0.083021596,1.600927353,9.336595535,2.536809683,11.95599937,-26.66919899,28.58459854,0.637908041,0.521957695,0.441824257,0.354153603,-1.248846531,-1.364856958,3.095645428,-0.821934581,11.54327583,1.416550994,walk
1.70E+18,6.377150635,-2.090712309,-2.872503281,-0.996034861,-0.198998839,-1.897046804,0.098733783,1.540270209,9.343852043,2.547620773,12.0291996,-26.6814003,28.56019974,0.635086656,0.523155808,0.443727314,0.355076015,-1.273613572,-1.368523002,3.075495958,-0.529711127,10.99950695,1.538584948,walk
1.70E+18,6.387030762,-2.389469147,-1.552955151,-0.929154158,-0.274630398,-1.712628365,0.296467662,1.464608908,9.356238365,2.546782494,12.13899994,-26.6814003,28.57239914,0.633790493,0.52469945,0.444399595,0.354272574,-1.294073224,-1.370341778,3.054682493,-0.280558467,10.48205853,1.737488389,walk
1.70E+18,6.3969104,-2.624159813,0.0790205,-0.796866894,-0.368970096,-1.346454501,0.461179316,1.381811976,9.373373032,2.529993057,12.22439957,-26.65699959,28.70660019,0.633853614,0.526330054,0.444122314,0.352081954,-1.30942297,-1.370297194,3.035079241,-0.029012974,10.05553818,1.974676847,walk
1.70E+18,6.406790527,-2.673446417,1.612602234,-0.766402721,-0.479354858,-0.860841453,0.551790714,1.302300811,9.394247055,2.494501591,12.33419991,-26.58379936,28.77979851,0.634607852,0.527806222,0.443556309,0.34921515,-1.322074413,-1.368925095,3.016609669,0.241675094,10.09382343,2.240579367,walk
1.70E+18,6.416670654,-2.45388031,2.509368896,-0.836365938,-0.581151187,-0.352925003,0.572030127,1.233838439,9.417326927,2.441718102,12.38299942,-26.53499985,28.92619896,0.635275722,0.529126585,0.443223506,0.346414179,-1.335321903,-1.367272139,2.99808979,0.670289457,10.55623627,2.528017044,walk
1.70E+18,6.426550537,-2.211082697,2.46141243,-0.903835297,-0.65205574,0.047336292,0.572030127,1.175622463,9.441286087,2.377061367,12.34639931,-26.35199928,29.13360023,0.635320723,0.530425608,0.443321943,0.344212055,-1.351183295,-1.366353512,2.978680849,1.142273664,10.72881889,2.829811811,walk
1.70E+18,6.43643042,-1.958068371,1.956866264,-0.919455409,-0.695197701,0.224830747,0.576823711,1.121689081,9.465327263,2.306466341,12.32199955,-26.0958004,29.38979912,0.634432256,0.531763256,0.443980008,0.342936307,-1.371013165,-1.36672318,2.957765818,1.24516511,10.31186962,2.976073265,walk
1.70E+18,6.446310547,-1.608783245,1.386583328,-0.724954247,-0.728752553,0.127827957,0.589673042,1.065105677,9.489100456,2.234483957,12.40740013,-25.88839912,29.65819931,0.632329583,0.532964587,0.445573986,0.34288761,-1.396696806,-1.368372679,2.934619665,0.948155999,9.626625061,2.724527597,walk
1.70E+18,6.456190674,-1.295182109,0.844072342,-0.454597354,-0.759710848,-0.179691494,0.602455854,1.001318097,9.512454987,2.16355443,12.6026001,-25.60779953,29.97539902,0.625149429,0.534754634,0.4508802,0.346313059,-1.460110068,-1.375007749,2.885775566,0.560219586,8.932107925,2.125424623,walk
1.70E+18,6.466070557,-0.970921516,0.394280434,-0.148795962,-0.775156736,-0.583148479,0.607249379,0.929470718,9.534918785,2.095663786,12.67579937,-25.31499863,30.29259872,0.620625615,0.536041617,0.453468323,0.349069834,-1.496442437,-1.380491018,2.858305454,0.284745902,8.362017632,1.60827589,walk
1.70E+18,6.475950439,-0.622424304,0.410714149,0.180193424,-0.752786875,-0.941865742,0.594466627,0.852600217,9.555603027,2.033203363,12.77339935,-25.08320045,30.47559929,0.616173804,0.537964106,0.455172956,0.351769865,-1.533409834,-1.387186766,2.828524828,0.116949208,8.045866013,1.327717423,walk
1.70E+18,6.485830566,-0.11555779,0.852433205,0.522888184,-0.687741101,-1.143860579,0.572562754,0.775375187,9.573701859,1.978233218,12.68799973,-24.79039955,30.67079926,0.612158835,0.540658891,0.455665439,0.354003608,-1.570145488,-1.394800544,2.796035528,-0.129810631,7.985746384,1.181755304,walk
1.70E+18,6.495710693,0.430667162,1.007086754,0.869041085,-0.571564078,-1.128414631,0.555519044,0.701849937,9.5884161,1.93392849,12.7489996,-24.54640007,30.85379982,0.60878408,0.543926179,0.45494473,0.355740815,-1.60469389,-1.402980924,2.762754917,-0.465104908,8.20857811,1.013958573,walk
1.70E+18,6.505590576,0.601808906,0.577123642,1.046847343,-0.419635236,-0.899789035,0.544866681,0.6345191,9.599429131,1.902294993,12.85879993,-24.3512001,30.98799896,0.606032014,0.547418177,0.453297108,0.357183814,-1.635679722,-1.411421061,2.730927944,-0.613758981,8.582456589,0.786341369,walk
1.70E+18,6.515470459,0.363182068,-0.11553669,0.81408155,-0.247466952,-0.493602365,0.519301116,0.576906621,9.606716156,1.883763433,12.99300003,-24.19260025,31.23199844,0.603717029,0.550766647,0.451187819,0.35862425,-1.662884712,-1.419842839,2.702103853,-0.802792013,8.853144646,0.820139945,walk
1.70E+18,6.525350586,0.019261837,-0.812002182,0.22104907,-0.066776797,-0.00272966,0.45851624,0.533471465,9.610284805,1.878358364,13.01739979,-24.00959969,31.42720032,0.601670742,0.553711236,0.449035585,0.360226601,-1.686653256,-1.427936316,2.676965952,-0.534496784,9.39452076,1.572084427,walk
1.70E+18,6.535230713,-0.226856232,-1.378550529,-0.304196715,0.110185042,0.392205477,0.375894099,0.504691005,9.610196114,1.886744857,13.10279942,-23.91199875,31.54920006,0.599657595,0.556142688,0.447248548,0.362056345,-1.709426284,-1.435406446,2.653902769,0.107377917,9.650852203,2.032104731,walk
1.70E+18,6.545110596,-0.373372972,-1.687639236,-0.602865338,0.235416502,0.555851936,0.319969356,0.484024316,9.607507706,1.905753613,13.15159988,-23.80220032,31.70779991,0.597491324,0.558142185,0.446054846,0.364028096,-1.73489821,-1.442046881,2.629468441,0.677467883,9.62901783,2.559123755,walk
1.70E+18,6.554990479,-0.598022342,-1.739597321,-0.770035386,0.263645172,0.500925839,0.314110577,0.462442458,9.604244232,1.927441716,13.10279942,-23.63139915,31.84199905,0.595036387,0.559876561,0.445497453,0.36606282,-1.766628981,-1.447868943,2.600038767,0.768694282,9.420842171,2.978466034,walk
1.70E+18,6.564870605,-0.904133558,-1.510775566,-0.952771544,0.19706811,0.330888003,0.347665429,0.433735311,9.6024189,1.943143249,13.09060001,-23.4727993,31.96399879,0.592316031,0.561505973,0.445427567,0.368058473,-1.805921674,-1.452955127,2.563866615,0.512363136,9.212367058,3.107678413,walk
1.70E+18,6.574750488,-1.012716532,-1.134418488,-1.184449911,0.077096239,0.077762008,0.405254602,0.394416124,9.603154182,1.947881579,13.04179955,-23.28979874,32.04940033,0.589615643,0.563124061,0.445543855,0.369777411,-1.850037098,-1.457223773,2.522759438,0.143270254,9.111868858,2.959323406,walk
1.70E+18,6.584630615,-1.148340225,-0.864295959,-1.144175053,-0.051330917,-0.290009677,0.469701201,0.341518164,9.606417656,1.941768646,13.0661993,-23.18000031,32.13479996,0.587119877,0.564635694,0.445759982,0.371180296,-1.894924164,-1.460580349,2.480549812,-0.113060869,9.152546883,2.575873613,walk
1.70E+18,6.603489746,-0.747685194,-0.332896233,-0.34520936,-0.334882617,-0.923756778,0.550192833,0.21073544,9.619289398,1.896115422,13.02960014,-23.167799,32.14699936,0.584898055,0.565971792,0.446043164,0.372311264,-1.937651157,-1.463090658,2.440182209,-0.108275227,9.1860466,2.134995937,walk
1.70E+18,6.613342529,-0.031935148,-0.086874962,0.161497831,-0.50918138,-0.950387597,0.583281636,0.137800291,9.629605293,1.84988904,12.98079967,-23.08239937,32.19580078,0.58297199,0.567048013,0.446393847,0.373273015,-1.975594163,-1.464914799,2.404450178,0.131306142,9.190832138,1.814058661,walk
1.70E+18,6.623198486,0.609864533,-0.120829582,0.749822736,-0.666436434,-0.786275148,0.613640785,0.066924118,9.641810417,1.789244533,12.84659958,-23.00919914,32.20800018,0.581387579,0.567821383,0.446789414,0.374094367,-2.006562233,-1.46616745,2.375552893,0.394815743,9.123832703,1.739881158,walk
1.70E+18,6.633051758,0.767438769,-0.342445374,1.242107749,-0.794330955,-0.506451726,0.620032191,0.001117217,9.655162811,1.717034817,12.80999947,-22.96039963,32.24459839,0.580061197,0.568230689,0.447318763,0.374898374,-2.030274391,-1.466974139,2.35413146,0.430708081,9.12861824,1.804487348,walk
1.70E+18,6.642896973,0.568380654,-0.563947678,1.452476501,-0.879616141,-0.187148124,0.577356279,-0.055513989,9.668887138,1.637050629,12.9197998,-22.97259903,32.34220123,0.578967988,0.568279207,0.447977811,0.375726908,-2.046615839,-1.467460155,2.340365171,0.272781789,9.15733242,1.787737608,walk
1.70E+18,6.652749756,0.245360985,-0.677071571,1.389065623,-0.919562399,0.049999375,0.490539819,-0.100908697,9.682366371,1.553052783,13.0661993,-23.05799866,32.32999802,0.57804352,0.568091094,0.448716313,0.376552552,-2.057799101,-1.467729688,2.331898928,0.076271221,9.188439369,1.727917075,walk
1.70E+18,6.662606934,0.024112098,-0.648068428,1.091470361,-0.917431951,0.13954553,0.385481209,-0.135613367,9.695131302,1.46847713,13.16379929,-23.13119888,32.42760086,0.57739526,0.567860305,0.449295759,0.377203763,-2.064422369,-1.467908859,2.327417612,-0.134596273,9.229117393,1.782951951,walk
1.70E+18,6.672459961,0.054948851,-0.624995232,0.733388066,-0.876420498,0.104392834,0.286347955,-0.161400065,9.706748009,1.38685739,13.13939953,-23.11899948,32.48859787,0.577137411,0.567612648,0.449611723,0.377594471,-2.065041542,-1.468016267,2.328028679,-0.366999179,9.437591553,1.950748682,walk
1.70E+18,6.682324707,0.316215932,-0.629071236,0.48927927,-0.80658114,-0.003794893,0.232021064,-0.182912484,9.716906548,1.310973048,13.17599964,-23.04579926,32.42760086,0.577280939,0.567285001,0.449706048,0.377755135,-2.05871439,-1.468020439,2.334801912,-0.608973384,9.727422714,2.161616087,walk
1.70E+18,6.692178711,0.602713048,-0.70320034,0.484728456,-0.729817748,-0.137082174,0.235216767,-0.205697328,9.725483894,1.242198229,13.16379929,-23.07019997,32.26900101,0.577873528,0.566872418,0.449506879,0.377705485,-2.044507504,-1.468023896,2.3485744,-0.776470959,9.967003822,2.403291225,walk
1.70E+18,6.702000488,0.667186022,-0.704055786,0.6129632,-0.668034256,-0.269770265,0.279423952,-0.233981103,9.732648849,1.179488897,13.2003994,-23.14340019,32.18359756,0.578899145,0.566436768,0.448879451,0.377534658,-2.022904396,-1.468327641,2.368771315,-0.800399184,10.17069244,2.779562712,walk
1.70E+18,6.711851318,0.544012427,-0.679830551,0.655226588,-0.617369115,-0.341207445,0.33435002,-0.268597394,9.738638878,1.121231318,13.21259975,-23.20439911,32.06159973,0.580307364,0.566039741,0.447762698,0.377294272,-1.994871855,-1.4690727,2.394407511,-0.659222662,10.35972595,3.308974504,walk
1.70E+18,6.721729004,0.385640621,-0.652103424,0.648948073,-0.55818212,-0.342272699,0.363111317,-0.306321442,9.743473053,1.068318129,13.21259975,-23.25319862,31.82979965,0.581962228,0.565714717,0.44635269,0.376903325,-1.963240385,-1.469885349,2.422869205,-0.510568559,10.4291172,3.912564039,walk
1.70E+18,6.731582275,0.212374493,-0.613747597,0.750461698,-0.487876713,-0.304390341,0.359915614,-0.343536079,9.747146606,1.022498131,13.17599964,-23.28979874,31.6833992,0.58349812,0.565440238,0.445167214,0.376342207,-1.934939027,-1.47012639,2.44811964,-0.311665148,10.43898773,4.403690815,walk
1.70E+18,6.741463379,0.0149014,-0.407271385,0.957059801,-0.414841682,-0.266574562,0.331686944,-0.378116846,9.749824524,0.984040618,13.12720013,-23.38739967,31.41499901,0.584796369,0.565282404,0.444452167,0.375408173,-1.914663196,-1.469285369,2.465556383,-0.031405795,10.29272652,4.823033333,walk
1.70E+18,6.75131958,-0.19669652,-0.119355202,1.199563503,-0.347665429,-0.246867746,0.283152252,-0.408171058,9.751729965,0.952645242,13.07839966,-23.57040024,31.20759964,0.586094439,0.565442264,0.443897367,0.373796046,-1.901761651,-1.467399478,2.474761248,0.059521463,9.952646255,5.081458092,walk
1.70E+18,6.76114209,-0.339973271,0.118215561,1.465850592,-0.279423952,-0.236215428,0.220836118,-0.432314157,9.75302124,0.928474903,12.93200016,-23.78999901,31.03679848,0.587877035,0.566025734,0.442936718,0.371244639,-1.889414668,-1.464754701,2.48111248,-0.06759724,9.523733139,5.167898655,walk
1.70E+18,6.770994873,-0.345285773,0.319740295,1.859563351,-0.218705654,-0.240476355,0.160583884,-0.450717777,9.753845215,0.910910249,12.80999947,-24.0340004,30.85379982,0.590536356,0.566838324,0.441228658,0.367802113,-1.868674994,-1.461626887,2.493056297,-0.278165638,9.269794464,4.844568729,walk
1.70E+18,6.780834961,-0.191085041,0.506661415,2.400615454,-0.170170978,-0.256454855,0.10405995,-0.463371515,9.754337311,0.899211466,12.63920021,-24.31459999,30.62199974,0.594210029,0.56746769,0.438745707,0.363864064,-1.832381487,-1.458287477,2.518403292,-0.266201526,9.437591553,4.391726971,walk
1.70E+18,6.790686523,-0.033576846,0.573748589,3.011729002,-0.141942307,-0.26124841,0.067842029,-0.472167641,9.754609108,0.891647935,12.50500011,-24.6317997,30.39019966,0.598733366,0.567193627,0.435873002,0.360311627,-1.774517298,-1.454936743,2.565358162,0.315852582,10.12732315,4.360620022,walk
1.70E+18,6.800560303,0.170473248,0.5809412,3.507345915,-0.126496419,-0.215376809,0.038548119,-0.477230877,9.75479126,0.886956453,12.1633997,-24.98559952,30.17059898,0.603944063,0.565401673,0.432964236,0.357930928,-1.690954328,-1.45143187,2.640002012,0.746859789,11.10718346,4.398905277,walk
1.70E+18,6.810414063,0.450895935,0.432808876,3.927611828,-0.105724379,-0.13228862,0.001198387,-0.477286607,9.754898071,0.885743141,11.82180023,-25.40040016,29.9265995,0.609658062,0.561975181,0.430398077,0.356732994,-1.587890863,-1.446618199,2.736830235,0.555433929,11.9216404,4.200001717,walk
1.70E+18,6.820265625,0.536287069,0.09154129,4.183220387,-0.073700808,-0.045938175,-0.048334949,-0.471656084,9.754901886,0.8887164,11.60219955,-25.8151989,29.64599991,0.615504742,0.557283759,0.428604394,0.356211931,-1.483220339,-1.43932128,2.837863922,-0.156131685,12.40798187,3.294617653,walk
1.70E+18,6.830119385,0.396500945,-0.337337494,4.26280117,-0.043874286,0.051064607,-0.117109053,-0.458965629,9.754905701,0.895294607,11.33379936,-26.21780014,29.31659889,0.621164739,0.551984906,0.427581459,0.35586676,-1.392186046,-1.429762363,2.927003384,-0.946660459,12.43669605,2.072782516,walk
1.70E+18,6.839969238,0.164706141,-0.590982437,3.932343483,-0.035885036,0.155590594,-0.197600722,-0.438226968,9.755210876,0.902337551,10.95559978,-26.60820007,29.0359993,0.626342952,0.54658699,0.427275926,0.355489105,-1.321342111,-1.418898582,2.997214556,-1.250848055,12.2665062,1.047458172,walk
1.70E+18,6.849822266,0.147906482,-0.423781395,3.474265099,-0.04600475,0.258452177,-0.268505305,-0.409769148,9.755955696,0.907633781,10.56519985,-26.96199989,28.76759911,0.631001651,0.541261852,0.427612603,0.354992986,-1.268990397,-1.40735507,3.049902201,-1.099801064,11.93121147,0.293120772,walk
1.70E+18,6.859666992,0.697780013,0.263924599,3.437756538,-0.046537369,0.323431373,-0.283951163,-0.377827615,9.756761551,0.91281569,10.08939934,-27.2670002,28.4625988,0.635267198,0.536055565,0.428495079,0.354220301,-1.231722474,-1.395302057,3.088041782,-0.96101737,11.34676456,-0.133399859,walk
1.70E+18,6.869519531,1.101994157,1.239660263,3.467507601,-0.012449911,0.300528854,-0.221035853,-0.351009011,9.756999969,0.920946777,9.430600166,-27.59639931,28.10879898,0.639289618,0.530816197,0.429915428,0.353151113,-1.205634117,-1.382586837,3.11550498,-0.925125062,10.93938732,-0.492622375,walk
1.70E+18,6.879390381,0.894395173,2.049194336,3.253305912,0.064313442,0.27869159,-0.114445969,-0.335032552,9.756166458,0.935601532,8.893799782,-27.90139961,27.8526001,0.643243074,0.525196791,0.431905836,0.351943135,-1.186279178,-1.368814826,3.137100458,-0.728614509,10.64237785,-0.722632468,walk
1.70E+18,6.889244629,0.176967487,2.530570984,2.325239658,0.159185767,0.378890067,-0.020106273,-0.328911245,9.754275322,0.957241118,8.442399979,-28.12100029,27.60859871,0.647183359,0.518826127,0.434527248,0.350940466,-1.17003417,-1.353749752,-3.12600112,-0.414855629,10.30469036,-0.739382207,walk
1.70E+18,6.899061035,-0.617134392,2.555410385,1.074012756,0.256188542,0.613973677,0.008122402,-0.325150043,9.75156498,0.985731304,7.905600071,-28.37719917,27.47439957,0.651059985,0.511566937,0.437817812,0.350336611,-1.155879021,-1.337409854,-3.105981827,-0.172881439,9.981360435,-0.725025237,walk
1.70E+18,6.908911377,-0.932889342,2.382689476,0.011962652,0.347865164,0.908710361,-0.048867565,-0.313585162,9.748270988,1.021406531,7.283400059,-28.62119865,27.30360031,0.654704154,0.50351721,0.441723078,0.350305021,-1.14363718,-1.320282936,-3.085646391,-0.002691926,9.650852203,-0.813858807,walk
1.70E+18,6.918810303,-0.811082125,2.04608345,-0.785886168,0.427824199,1.127748847,-0.197600722,-0.284733802,9.744648933,1.063550591,6.905200005,-28.90180016,27.07180023,0.657783151,0.494955182,0.446194142,0.351071894,-1.133797526,-1.303311825,-3.065219879,0.164805666,9.60030365,-0.966999471,walk
1.70E+18,6.928665527,-0.728241682,1.462078094,-1.259999156,0.491804779,1.150118828,-0.466239184,-0.229356036,9.740902901,1.110215425,6.490399837,-29.13360023,26.86439896,0.659948945,0.486292183,0.451144397,0.352783293,-1.126993656,-1.287604332,-3.04531002,0.332602352,9.751350403,-1.158724308,walk
1.70E+18,6.938499268,-0.782972217,1.056789398,-1.66945982,0.540272892,0.966765523,-0.840402305,-0.139981121,9.736870766,1.159370065,6.173199654,-29.43859863,26.63259888,0.660958767,0.477913499,0.456505656,0.355436116,-1.123851538,-1.274003625,-3.026735067,0.435493708,10.0770731,-1.299900889,walk
1.70E+18,6.948352295,-0.707542539,0.764281273,-1.955509901,0.620231926,0.706182897,-1.175085187,-0.020762727,9.731137276,1.214466572,6.026799679,-29.64599991,26.3885994,0.660944223,0.470131218,0.461996734,0.358731598,-1.123763084,-1.262746572,-3.009929895,0.584147811,10.62562847,-1.278365493,walk
1.70E+18,6.958204102,-0.528955996,0.435380936,-2.039552212,0.746062577,0.462044835,-1.344590425,0.112443857,9.722014427,1.28068769,5.916999817,-29.90219879,26.18120003,0.660285652,0.463022411,0.467342615,0.36224851,-1.125627995,-1.253371954,-2.994987488,0.888335407,11.3635149,-1.077368379,walk
1.70E+18,6.968057129,-0.421468794,0.125356674,-2.10214138,0.851054609,0.273898035,-1.357373238,0.244906381,9.709280968,1.356562138,5.868199825,-30.17059898,25.93719864,0.659544766,0.456473887,0.472333342,0.365422368,-1.128525972,-1.244800448,-2.982265949,1.254736423,11.77059364,-0.614955425,walk
1.70E+18,6.977889648,-0.374603033,-0.188116074,-2.273205996,0.914435983,0.140610754,-1.261968255,0.366336882,9.693732262,1.437959909,5.807199955,-30.39019966,25.57119942,0.659324229,0.450398803,0.4767721,0.367587835,-1.131987572,-1.235852957,-2.972731113,1.597508192,11.75384426,0.106181502,walk
1.70E+18,6.987740479,-0.316432357,-0.218842506,-2.513160229,0.961372793,0.037216578,-1.133541107,0.474310398,9.675958633,1.523562908,5.880399704,-30.59759903,25.25399971,0.660174012,0.444863826,0.480361342,0.368129641,-1.135327935,-1.225707889,-2.967279434,1.906481385,11.5265255,0.920638502,walk
1.70E+18,6.997604004,-0.24527052,-0.046406746,-2.797077417,1.024288177,-0.035751883,-1.009907484,0.569499791,9.656023026,1.614705682,5.89260006,-30.76840019,25.01000023,0.662457705,0.439926624,0.482807308,0.366758049,-1.137290955,-1.213976622,-2.96569562,2.155634165,11.45683479,1.639382601,walk
1.70E+18,7.007456055,-0.229200214,0.302879333,-3.038903952,1.114899516,-0.100797676,-0.925154865,0.655219913,9.633472443,1.713852525,5.904799938,-30.91479874,24.79039955,0.666525722,0.435821891,0.483554065,0.363287985,-1.135600924,-1.200753212,-2.967077017,2.169991016,11.5337038,2.137388945,walk
1.70E+18,7.017322266,-0.164681375,0.877364159,-3.128884554,1.2252177,-0.199398309,-0.913437307,0.73796314,9.607291222,1.823664904,6.087800026,-31.04899979,24.6196003,0.672173619,0.432677567,0.482309401,0.358260214,-1.12828815,-1.187009811,-2.969127417,2.064407825,11.38744259,2.413161755,walk
1.70E+18,7.027175781,0.052171409,1.643900871,-3.050765991,1.335003257,-0.348131478,-0.978416562,0.823866546,9.576563835,1.944495916,6.221999645,-31.18319893,24.44879913,0.678836346,0.4305363,0.479064941,0.352585375,-1.114407182,-1.174119234,-2.969435215,1.928016901,11.03779221,2.511267424,walk
1.70E+18,7.037025879,0.326582491,2.083845139,-2.722259521,1.421886325,-0.54906106,-1.071158409,0.914270759,9.540779114,2.075577736,6.319600105,-31.25639915,24.22920036,0.685750902,0.429191053,0.474349529,0.347178966,-1.095204711,-1.1630193,-2.966752768,1.702792406,10.71924686,2.556730986,walk
1.70E+18,7.04687915,0.574406505,2.104017258,-2.141289473,1.446919322,-0.792666495,-1.158574104,1.007165313,9.500537872,2.212641716,6.380599976,-31.25639915,24.09499931,0.692268014,0.428248405,0.469086111,0.342529625,-1.073851824,-1.153719902,-2.961715937,1.314856052,10.35733318,2.722134829,walk
1.70E+18,7.05672876,0.791759849,1.91590786,-1.465645075,1.388331532,-1.028748751,-1.193793297,1.096974611,9.457914352,2.348381519,6.453799725,-31.30519867,23.99740028,0.698149264,0.427386254,0.463978767,0.338603407,-1.053090692,-1.14562571,-2.955799341,0.890728235,9.945467949,2.930310488,walk
1.70E+18,7.066581543,0.959494948,1.884892464,-0.876467228,1.241196156,-1.26383245,-1.159639359,1.176575184,9.416035652,2.474737406,6.624599934,-31.30519867,23.89979935,0.703454971,0.42644614,0.459276348,0.335201532,-1.033943772,-1.138179183,-2.949876785,0.392422915,9.310472488,3.208176851,walk
1.70E+18,7.076442383,0.909213424,1.995779991,-0.492847204,1.03707087,-1.500447273,-1.066897392,1.239585757,9.377897263,2.586282015,6.75880003,-31.32959938,23.81439972,0.708350599,0.425554305,0.454712451,0.332234234,-1.015406609,-1.131439328,-2.943603754,0.06669993,8.67816925,3.555734396,walk
1.70E+18,7.086296143,0.756653666,1.878788948,-0.315136671,0.830815196,-1.628408432,-0.94113338,1.285370588,9.345018387,2.681200027,6.978399754,-31.32959938,23.7533989,0.713125706,0.424905479,0.449820489,0.329497457,-0.995922625,-1.125426769,-2.936619043,0.006879365,8.23729229,3.641875982,walk
1.70E+18,7.096144043,0.586377978,1.55432415,-0.30072546,0.677288473,-1.627343178,-0.820162833,1.318035483,9.31673336,2.762541771,6.929599762,-31.24419975,23.77779961,0.71797353,0.424397737,0.44449392,0.326842129,-0.975047886,-1.11970377,-2.928858042,0.277567416,7.952247143,3.503092289,walk
1.70E+18,7.105996826,0.334222198,1.260063171,-0.33327651,0.628753781,-1.515360594,-0.736475468,1.344154596,9.290156364,2.838421106,7.027199745,-31.0855999,23.92420006,0.722908199,0.424128503,0.438637257,0.324216098,-0.952624977,-1.114381671,-2.920432568,0.627218664,7.787142277,2.973680258,walk
1.70E+18,7.115854004,-0.080015182,0.92546463,-0.249794006,0.700190961,-1.267028093,-0.676223218,1.369582534,9.261684418,2.918189764,7.246799946,-30.89039993,24.13159943,0.727647543,0.424215585,0.432433575,0.321825057,-0.929309011,-1.109991193,-2.911394835,0.823729217,7.738986492,2.298007011,walk
1.70E+18,7.125707275,-0.534518301,0.546292305,-0.132936239,0.861174345,-0.864037156,-0.619699299,1.399392247,9.228504181,3.007787943,7.478600025,-30.75619888,24.3512001,0.731869936,0.424785674,0.426177502,0.319837838,-0.906199694,-1.107068062,-2.902121544,0.864407182,7.717451096,1.684846282,walk
1.70E+18,7.135532715,-1.0729146,-0.047789574,0.042451143,1.06157124,-0.322565883,-0.571231186,1.43886447,9.1889534,3.108566284,7.673799992,-30.5243988,24.54640007,0.735255539,0.425830781,0.420277119,0.318487912,-0.884474754,-1.105960727,-2.892741442,0.840478957,7.561917782,1.368694544,walk
1.70E+18,7.145383301,-1.455816865,-0.631572723,0.280935526,1.229478598,0.330355406,-0.546198249,1.495214939,9.142856598,3.216039658,7.954400063,-30.29259872,24.86359978,0.737583041,0.427346021,0.415088087,0.317881346,-0.865252912,-1.106873155,-2.883622646,0.826122046,7.351050377,1.210469127,walk
1.70E+18,7.155266846,-1.593804955,-1.019249916,0.264023542,1.280077219,0.967830777,-0.547263443,1.572354436,9.093250275,3.31826663,8.356999397,-30.04859924,25.11979866,0.738704979,0.429403007,0.410822362,0.318045646,-0.849276245,-1.110058784,-2.87514782,0.96251291,7.252944469,0.992423177,walk
1.70E+18,7.16512085,-1.421702981,-1.252167702,0.042002916,1.17455256,1.466226697,-0.579220474,1.669783592,9.045164108,3.401062489,8.710800171,-29.80459976,25.42479897,0.738497734,0.43207413,0.407650024,0.318989843,-0.837189019,-1.115757585,-2.867697954,1.273878932,7.022934437,1.07647109,walk
1.70E+18,7.174973633,-1.184015274,-1.37026453,-0.543285847,0.96190542,1.720484495,-0.617036223,1.780643463,9.002550125,3.45742321,9.259799957,-29.6215992,25.65659904,0.737073004,0.435517222,0.405422479,0.320438325,-0.828984678,-1.124013424,-2.861997366,1.702792406,6.682555676,1.383051515,walk
1.70E+18,7.184827148,-1.101849318,-1.376597404,-1.252337456,0.757780135,1.71402657,-0.63627702,1.893890262,8.965995789,3.492060423,9.662400246,-29.51179886,25.77859879,0.734628975,0.439844966,0.403832138,0.322143227,-0.823973417,-1.134751558,-2.858281136,2.208276272,6.275476456,1.620239973,walk
1.70E+18,7.194662842,-1.169761181,-1.360248089,-1.886910558,0.632482111,1.568022966,-0.63254869,2.001825571,8.933547974,3.514938593,9.991799355,-29.42639923,25.77859879,0.731497765,0.445138484,0.40248394,0.323681116,-0.821478546,-1.147618651,-2.857197285,2.761616468,5.803492069,1.759023786,walk
1.70E+18,7.204514648,-1.294939876,-1.479588509,-2.219322205,0.565905035,1.399050474,-0.617036223,2.102720737,8.903178215,3.533037901,10.34560013,-29.37759972,25.68099976,0.728034556,0.451236457,0.401125908,0.324729621,-0.821043074,-1.161865234,-2.859140873,3.355634689,5.362913609,1.883749604,walk
1.70E+18,7.214396484,-1.406027317,-1.655975342,-2.386499405,0.486478597,1.312167406,-0.601057708,2.199438095,8.875267029,3.544361115,10.71159935,-29.38979912,25.63220024,0.724602222,0.45788306,0.399522811,0.325078875,-0.821945727,-1.176635027,-2.864013195,4.019343853,5.147260666,2.101496458,walk
1.70E+18,7.224251465,-1.366889238,-1.722205162,-2.603155613,0.400128156,1.345722198,-0.598927259,2.297047853,8.850026131,3.545560837,10.84579945,-29.40199852,25.49799919,0.721665323,0.464480847,0.397573024,0.324641913,-0.823240578,-1.190452695,-2.870993614,4.615755081,5.245366573,2.331506491,walk
1.70E+18,7.234100098,-1.157013178,-1.920926094,-2.509722948,0.340941131,1.423550725,-0.612242699,2.39893651,8.825703621,3.538706303,10.8579998,-29.47519875,25.30279922,0.719744027,0.470348001,0.395262063,0.323278844,-0.824179888,-1.201606631,-2.879399776,4.886443138,5.508875847,2.537588358,walk
1.70E+18,7.24395459,-0.833639979,-2.231155396,-2.183730125,0.25831902,1.496053219,-0.621896327,2.504860878,8.802825928,3.522257805,10.8579998,-29.56060028,25.08320045,0.719079852,0.475011855,0.392843187,0.320877075,-0.825469196,-1.208969355,-2.889594316,4.831408024,5.877669811,2.669193745,walk
1.70E+18,7.253784424,-0.431954384,-2.612046719,-1.91499424,0.141609415,1.539261699,-0.583481371,2.609399557,8.783765793,3.493835926,10.66279984,-29.56060028,24.85140038,0.719721437,0.47827822,0.390476137,0.317457736,-0.827403486,-1.212151885,-2.901548862,4.637290478,6.383153439,2.801098108,walk
1.70E+18,7.26363623,0.026724577,-3.063532829,-1.731588721,-0.007123746,1.491792321,-0.490739524,2.7052598,8.770981789,3.452803612,10.50419998,-29.64599991,24.75379944,0.721531868,0.480290562,0.388260096,0.312996596,-0.830609679,-1.21148181,-2.915812969,4.555934429,7.049255371,2.96889472,walk
1.70E+18,7.273501221,0.541900873,-3.491535187,-1.551335335,-0.175497144,1.331874132,-0.366040707,2.785780907,8.76611805,3.400733232,10.28460026,-29.67039871,24.70499992,0.723798573,0.481107742,0.386829287,0.308243543,-0.83639282,-1.20804882,-2.931510448,4.483850479,7.882854939,3.208176851,walk
1.70E+18,7.283354492,1.147672415,-3.703528881,-1.26956296,-0.345002353,1.088867903,-0.21038352,2.845443964,8.770125389,3.340471029,9.94299984,-29.59719849,24.66839981,0.725823104,0.480838835,0.386562467,0.304210961,-0.844211698,-1.203219771,-2.945948124,4.352245331,8.996713638,3.416651726,walk
1.70E+18,7.293201904,1.711550474,-3.612511635,-0.969543695,-0.51290971,0.804783523,-0.021171506,2.879978657,8.784059525,3.273592234,9.65019989,-29.52400017,24.6439991,0.727481008,0.479572088,0.387240082,0.301375389,-0.851865292,-1.197604656,-2.956576824,4.203591347,10.3788681,3.675375462,walk
1.70E+18,7.303054443,1.978368521,-3.367910385,-0.688456297,-0.67282778,0.507849872,0.199464887,2.885771751,8.808763504,3.201309204,9.686800003,-29.42639923,24.71719933,0.728950024,0.477076083,0.388765067,0.299819946,-0.858251631,-1.190752149,-2.962268353,4.02652216,11.76820087,3.972384691,walk
1.70E+18,7.312882813,1.948210716,-3.029322624,-0.476748228,-0.81403774,0.266441405,0.436678976,2.862706184,8.844047546,3.123801947,9.735599518,-29.26779938,24.9368,0.730157495,0.473362535,0.391078055,0.299759716,-0.862755239,-1.182927847,-2.962161541,3.50907445,12.70020485,4.336691856,walk
1.70E+18,7.322733154,1.804942846,-2.564892769,-0.258672714,-0.929748714,0.137947679,0.67655611,2.81364584,8.889034271,3.039546013,9.674599648,-29.08479881,25.07099915,0.730665624,0.469163239,0.39402011,0.301266938,-0.866050959,-1.17584002,-2.957241535,3.070589542,13.07378483,4.65762949,walk
1.70E+18,7.332615479,1.795419693,-1.948934078,0.00159502,-1.004315019,0.126762733,0.904116511,2.743085384,8.941591263,2.948529959,9.796599388,-28.90180016,25.24180031,0.729953468,0.46557495,0.397565812,0.303890347,-0.871128559,-1.171484828,-2.951506376,3.132802963,12.96610737,5.115256786,walk
1.70E+18,7.342468994,1.81023097,-1.171004295,0.336821318,-1.021358728,0.212047949,1.093861103,2.657282114,8.998056412,2.853807449,9.930799484,-28.76759911,25.31499863,0.727823377,0.463433444,0.401546806,0.307022423,-0.879950643,-1.171058774,-2.948356867,3.25752902,12.46301651,5.536692619,walk
1.70E+18,7.352321045,1.772046328,-0.115299225,0.640697718,-0.98141253,0.358118027,1.206309795,2.56394124,9.054665565,2.758551598,9.967399597,-28.59679985,25.42479897,0.724701464,0.463202149,0.405031055,0.310163468,-0.889953434,-1.174814463,-2.947673798,3.22642231,11.62463188,4.990530491,walk
1.70E+18,7.362174316,1.711809397,1.211159706,0.987425089,-0.858844101,0.527623236,1.185537815,2.475066185,9.105839729,2.669855356,10.08939934,-28.4625988,25.68099976,0.721269727,0.465003073,0.406796485,0.313143283,-0.895845771,-1.182502747,-2.946494579,3.271885872,10.6112709,3.835993767,walk
1.70E+18,7.372035156,1.60474515,2.552914619,1.35526824,-0.631217122,0.703519821,1.021891356,2.403426886,9.145878792,2.597466707,10.11380005,-28.31620026,25.88839912,0.718121469,0.468637913,0.406187654,0.31573987,-0.894315898,-1.193264008,-2.942881346,3.683750391,9.624231339,3.239582777,walk
1.70E+18,7.38188916,1.134395361,3.449485779,1.763616562,-0.314110577,0.851653814,0.787939548,2.354340792,9.171686172,2.551008224,9.930799484,-28.23079872,25.99819946,0.715402484,0.473387659,0.403964758,0.317672551,-0.888080835,-1.205400705,-2.938521147,4.644468784,9.037391663,3.268296719,walk
1.70E+18,7.391746826,0.718393326,3.802060127,2.09894371,0.03448692,0.977417886,0.535279572,2.329635143,9.182686806,2.534056664,9.613599777,-28.05999947,26.1201992,0.712713659,0.478206992,0.401919514,0.319089413,-0.88392812,-1.217235804,-2.936728001,5.827719688,9.583553314,3.517449379,walk
1.70E+18,7.401601318,0.782148361,3.686514854,2.541573524,0.362245798,1.061105251,0.33062169,2.325648308,9.18037796,2.546055555,9.491600037,-27.95019913,26.31539917,0.709882081,0.482030213,0.401401401,0.320298702,-0.886413276,-1.227071404,-2.939101696,6.177670002,11.35872936,3.926921129,walk
1.70E+18,7.411446777,0.897942066,3.186197281,2.92338562,0.595198929,0.944395661,0.192008257,2.331991196,9.168487549,2.582839012,9.333000183,-27.80379868,26.54719925,0.706870675,0.484157056,0.402923495,0.321836084,-0.895827949,-1.234015822,-2.94410491,5.442175865,12.78874016,3.819244146,walk
1.70E+18,7.421300049,0.855760098,2.357800484,2.323349714,0.680484176,0.605917871,0.07476604,2.341112137,9.151576042,2.634057045,9.223199844,-27.60859871,26.82779884,0.703696609,0.484423399,0.406279504,0.324163526,-0.909547627,-1.238133669,-2.948694706,4.184448719,13.42373466,2.915953398,walk
1.70E+18,7.43114502,0.886452675,1.360523224,1.110312939,0.671429694,0.238146156,-0.069173567,2.35468936,9.131642342,2.690524578,9.406199455,-27.41339874,27.10840034,0.700321257,0.48325482,0.410820752,0.327477068,-0.924323857,-1.240468144,-2.950465202,2.752045155,13.50748348,1.548156261,walk
1.70E+18,7.440997803,1.274059534,0.396742821,0.450187445,0.658114254,-0.11038477,-0.266374826,2.378311396,9.106928825,2.752792835,9.52820015,-27.19379997,27.291399,0.696643829,0.481531769,0.415766269,0.331591517,-0.938273311,-1.242650151,-2.949298382,1.264307618,12.64756298,0.055932228,walk
1.70E+18,7.45087207,2.20004487,-0.162212372,0.41298151,0.585079253,-0.487743556,-0.469434887,2.412158728,9.078185081,2.817519903,9.467200279,-26.90099907,27.52319908,0.692639947,0.480156809,0.42048198,0.335997403,-0.951308429,-1.245992422,-2.947165966,0.152841553,10.80778122,-1.082154036,walk
1.70E+18,7.460726807,3.349797726,0.407625198,0.603454113,0.406519562,-0.839536786,-0.542469919,2.444484234,9.051669121,2.874399662,9.418399811,-26.59599876,27.77939987,0.68834281,0.479701638,0.42455855,0.340324104,-0.96348685,-1.251235127,-2.945538759,-0.841077149,8.816953659,-1.764706731,walk
1.70E+18,7.470559082,3.686630964,2.191979408,0.967586994,0.179957807,-1.10018599,-0.393204153,2.455219984,9.035150528,2.91690588,9.58920002,-26.33979988,27.96239853,0.683996141,0.480508387,0.427495122,0.344251275,-0.973582804,-1.258606434,-2.944637775,-1.449751377,7.197610378,-1.942074656,walk
1.70E+18,7.480411865,2.97224617,3.613780975,0.831674814,-0.041211203,-1.217960835,-0.0798259,2.431845427,9.033524513,2.941420078,9.723400116,-26.0958004,28.1576004,0.679936349,0.482701361,0.42881,0.347574413,-0.979470789,-1.267975807,-2.943519592,-1.718046665,6.071787357,-1.534696579,walk
1.70E+18,7.490246338,1.763703585,4.224143982,-0.072421312,-0.278891325,-1.095925093,0.235749379,2.38092947,9.047794342,2.939214468,9.857600212,-25.88839912,28.29179955,0.676315427,0.486135423,0.428451151,0.350284725,-0.980207682,-1.278975368,-2.941313028,-1.785045743,5.468197823,-0.564706147,walk
1.70E+18,7.500096924,0.390959501,4.270269394,-1.401843667,-0.569966257,-0.713772714,0.438809425,2.320033312,9.076608658,2.898794889,9.991799355,-25.69319916,28.41379929,0.673107266,0.490509897,0.426869065,0.352291763,-0.977780223,-1.290944815,-2.939308405,-1.543071508,5.628816128,0.501296341,walk
1.70E+18,7.509960205,-1.039988995,3.365318298,-2.814437866,-0.842333019,-0.179158881,0.535279572,2.263180733,9.116037369,2.818909645,9.930799484,-25.5223999,28.49919891,0.669993997,0.495195866,0.425034076,0.35388571,-0.975818276,-1.303102612,-2.93888092,-1.061515927,6.431309223,1.179362416,walk
1.70E+18,7.519812256,-2.098019123,1.481958389,-3.8501544,-0.953716457,0.227493823,0.594999194,2.210744381,9.159239769,2.718700409,9.906399727,-25.42479897,28.62119865,0.666687071,0.499660343,0.423669308,0.355488718,-0.976504505,-1.314965844,-2.940201759,-0.652044177,7.76560688,1.622632861,walk
1.70E+18,7.529693604,-3.032180786,-0.544706345,-4.436378002,-0.863637686,0.256321698,0.641869485,2.153124094,9.20006752,2.625490189,10.16259956,-25.42479897,28.63339996,0.663128495,0.503533661,0.423052996,0.357408226,-0.979823232,-1.326138496,-2.942225695,-0.520139813,9.209974289,1.950748682,walk
1.70E+18,7.53954834,-3.573533058,-2.188130379,-4.544983864,-0.621630073,-0.008588442,0.626956224,2.089283228,9.233018875,2.560594797,10.34560013,-25.36380005,28.68219948,0.659348249,0.506636918,0.423304826,0.359710962,-0.985965967,-1.336315751,-2.944808722,-0.635294437,10.33819008,2.18793726,walk
1.70E+18,7.549412598,-3.773872375,-3.325343132,-4.103458405,-0.354589432,-0.429688364,0.51290971,2.024967432,9.255746841,2.530029058,10.63840008,-25.37599945,28.7553997,0.655426145,0.508987665,0.424423665,0.362232894,-0.995755851,-1.345321417,-2.949050426,-0.632901609,11.08564854,2.168794632,walk
1.70E+18,7.559268555,-3.779078007,-3.929971695,-3.127272844,-0.174431905,-0.90085423,0.319436759,1.966643929,9.269013405,2.52747035,10.87020016,-25.30279922,28.80419922,0.65157944,0.510848403,0.426236033,0.364418656,-1.011182427,-1.352987885,-2.958182096,-0.436391026,11.59113216,1.895713687,walk
1.70E+18,7.569070068,-3.483487844,-3.765696526,-2.06983757,-0.12063764,-1.287800193,0.135550901,1.916044831,9.276463509,2.538973808,11.00440025,-25.24180031,28.85299873,0.647966266,0.512470126,0.428556353,0.365860045,-1.033683538,-1.359262466,-2.974666595,-0.249451756,11.83549881,1.543370605,walk
1.70E+18,7.57892041,-2.952033997,-2.961360455,-1.399760604,-0.17816022,-1.473816514,0.055591848,1.868472099,9.283380508,2.549124002,10.97999954,-25.19299889,28.88959885,0.644752383,0.514107823,0.431016296,0.366350174,-1.062289596,-1.364275575,-2.998546124,-0.364606351,11.78524971,1.399801254,walk
1.70E+18,7.588805664,-2.489340305,-1.632340908,-0.953972936,-0.295469016,-1.474349141,0.099266402,1.817061305,9.29389286,2.547986984,11.17519951,-25.10759926,28.98719978,0.642211795,0.515993178,0.432987809,0.365836918,-1.092720747,-1.368260622,-3.026741266,-0.613758981,11.37787151,1.509871125,walk
1.70E+18,7.598659668,-2.297589302,-0.202506065,-0.606984377,-0.444135606,-1.337932706,0.219770893,1.758064747,9.310173035,2.529876709,11.35820007,-25.01000023,29.10919952,0.640562236,0.518043995,0.434153706,0.364446193,-1.120773077,-1.371116757,-3.055380344,-0.690329313,10.97557831,1.725524187,walk
1.70E+18,7.608502686,-2.347759247,0.902194023,-0.33043766,-0.613108158,-1.062902808,0.348730654,1.693797231,9.33262825,2.490680695,11.43139935,-24.80259895,29.31659889,0.639795363,0.519940674,0.434714377,0.362418294,-1.144945979,-1.372523189,-3.082181692,-0.469890535,10.69262695,2.027318954,walk
1.70E+18,7.618355469,-2.281603336,1.618855476,-0.286812544,-0.784743845,-0.661509693,0.448929131,1.630284667,9.360438347,2.427908182,11.48019981,-24.6196003,29.53619957,0.639529705,0.521426916,0.435109019,0.36027196,-1.165464163,-1.372741222,-3.10573411,0.100199446,10.50837994,2.432304144,walk
1.70E+18,7.628238525,-2.025905609,2.088597298,-0.475409865,-0.928084254,-0.22822617,0.519833744,1.571063876,9.392040253,2.343442917,11.38259983,-24.37559891,29.64599991,0.6390872,0.522521555,0.435769677,0.358669132,-1.184218645,-1.372826576,-3.126116991,0.888335407,10.25444126,2.954537868,walk
1.70E+18,7.638094238,-1.781811833,2.29520607,-0.730208278,-1.003782392,0.087881722,0.583814263,1.513810396,9.425136566,2.24623394,11.40699959,-24.19260025,29.82899857,0.637766898,0.52331394,0.437105596,0.35823819,-1.203950286,-1.373910189,3.138822079,1.506281853,9.617053032,3.349652529,walk
1.70E+18,7.647904053,-1.836757302,2.208195686,-0.775629878,-0.997390985,0.194471598,0.636543334,1.453876853,9.457372665,2.148196697,11.51679993,-23.97299957,30.01199913,0.63534534,0.524089038,0.439059913,0.359017193,-1.22650969,-1.376662731,3.120788336,1.549352646,8.797810555,3.366402388,walk
1.70E+18,7.657755615,-2.021143436,1.767314911,-0.572846889,-0.9494555,0.101197138,0.65411967,1.38948226,9.487478256,2.056086302,11.67539978,-23.72900009,30.17059898,0.631906211,0.524974048,0.441505969,0.360789806,-1.252938271,-1.38104105,3.101354122,1.216451168,8.261219978,2.647658348,walk
1.70E+18,7.667609375,-2.031293631,1.335038185,-0.27310586,-0.895062029,-0.105591223,0.625358343,1.323505759,9.514610291,1.97253716,11.62659931,-23.43619919,30.36579895,0.627824247,0.526111066,0.444080681,0.363092631,-1.28283155,-1.386663556,3.079536676,0.814157903,8.189435959,1.639382601,walk
1.70E+18,7.677461182,-1.744630098,1.02644062,0.102048993,-0.819363952,-0.336946517,0.58268249,1.257841349,9.538291931,1.899791956,11.72420025,-23.11899948,30.48779869,0.623463392,0.527715325,0.446315378,0.365530431,-1.315066338,-1.39339745,3.054980755,0.529112935,8.220541954,1.023529887,walk
1.70E+18,7.687311279,-1.108428359,0.819702148,0.567271709,-0.715437114,-0.522430241,0.561910391,1.192412019,9.55842495,1.839850783,11.82180023,-22.91160011,30.67079926,0.619181335,0.530060768,0.447773039,0.367626637,-1.349510312,-1.401088119,3.02624321,0.401994199,8.220541954,0.882353365,walk
1.70E+18,7.697162598,-0.252138674,0.547282219,1.133741856,-0.568901002,-0.626889646,0.588075221,1.124955654,9.574953079,1.795871854,12.0170002,-22.67980003,30.71959877,0.615036666,0.533038735,0.448491126,0.369398594,-1.38636446,-1.40950501,2.993228436,0.275174618,8.093722343,0.956530869,walk
1.70E+18,7.707025879,0.438276052,-0.103762627,1.556064129,-0.395134866,-0.632748425,0.649326086,1.053505182,9.588059425,1.769074678,12.0291996,-22.38699913,30.90259933,0.611221254,0.53644979,0.448456466,0.370832831,-1.424086809,-1.418226361,2.957456112,-0.062811591,7.995317936,1.025922656,walk
1.70E+18,7.716878418,0.557017684,-0.931960106,1.585864425,-0.233086303,-0.52456069,0.707447886,0.979058027,9.598262787,1.756474972,12.10239983,-22.08199883,31.06119919,0.607901692,0.540102959,0.447682083,0.371920884,-1.460824847,-1.426891804,2.920805454,-0.450747967,8.105687141,0.934995472,walk
1.70E+18,7.726726074,0.296814799,-1.47350502,0.872843862,-0.109985307,-0.287879229,0.71437192,0.907559037,9.606198311,1.751477957,12.1633997,-21.83799934,31.18319893,0.605172813,0.543814301,0.446173787,0.372774452,-1.493749022,-1.435397625,2.886315823,-0.771685302,8.474480629,0.951745212,walk
1.70E+18,7.736577881,-0.043051124,-1.547245979,-0.13502574,-0.003328853,-0.00113181,0.650923967,0.846137345,9.611794472,1.751532674,12.24879932,-21.52079964,31.3906002,0.60298574,0.547344744,0.444119841,0.373603374,-1.520745158,-1.443679214,2.85680151,-0.704686284,8.910572052,1.387837172,walk
1.70E+18,7.746426514,-0.278986931,-1.514826775,-0.757657766,0.111250274,0.218439341,0.544866681,0.797969937,9.614520073,1.759161115,12.34639931,-21.26459885,31.50039864,0.601080775,0.550459385,0.441949129,0.374669582,-1.542601109,-1.451653361,2.832676888,-0.175274253,9.375378609,1.998605132,walk
1.70E+18,7.756278076,-0.368067205,-1.511137962,-0.912480831,0.186415777,0.270702332,0.435081124,0.760880888,9.614941597,1.773231745,12.44399929,-21.05719948,31.6833992,0.599122941,0.553100407,0.440059543,0.376137316,-1.563107967,-1.45934689,2.811123371,0.555433929,9.732208252,2.673979282,walk
1.70E+18,7.76614209,-0.460588783,-1.633864403,-0.850759506,0.162381455,0.123034418,0.369502693,0.727183223,9.615106583,1.786428452,12.39519978,-20.80099869,31.80539894,0.596990407,0.555555761,0.438502878,0.377724111,-1.588643074,-1.466722012,2.785359144,0.96251291,9.830313683,3.220440149,walk
1.70E+18,7.775995117,-0.758439183,-1.729536533,-0.784747839,0.044074018,-0.171169639,0.364709169,0.688058376,9.617190361,1.790702581,12.37080002,-20.63019943,31.9762001,0.59473592,0.55819577,0.437093705,0.379019409,-1.625164747,-1.473723412,2.74838829,0.876371264,9.782457352,3.450151205,walk
1.70E+18,7.785861328,-1.09615171,-1.620174408,-0.864978909,-0.123833336,-0.492004514,0.404721975,0.638551414,9.622433662,1.780842543,12.4684,-20.48379898,32.12260056,0.592467248,0.561051726,0.435712963,0.379944384,-1.673262596,-1.480243564,2.699285507,0.457029134,9.614660263,3.421437263,walk
1.70E+18,7.795715576,-1.355828524,-1.255949974,-0.823515117,-0.282686204,-0.736675203,0.468635947,0.578096509,9.630624771,1.757058859,12.38299942,-20.39839935,32.22019958,0.590321481,0.5640378,0.434285223,0.380497426,-1.730894327,-1.486108065,2.639955759,0.014057833,9.528518677,3.124428272,walk
1.70E+18,7.805567139,-1.219765067,-0.828007698,-0.351301908,-0.416439533,-0.845395565,0.534747005,0.509936213,9.640872955,1.721607685,12.29759979,-20.21539879,32.35440063,0.588301182,0.566816628,0.433024883,0.380933225,-1.793456793,-1.491087317,2.575821161,-0.110668048,9.439984322,2.657229662,walk
1.70E+18,7.815421387,-0.61740458,-0.374426842,0.307489753,-0.546464562,-0.795862198,0.603521109,0.437750787,9.652745247,1.67429471,12.21220016,-20.16659927,32.41539764,0.586501896,0.569167197,0.431954265,0.381418109,-1.853636146,-1.495222449,2.514514923,0.116949208,9.380164146,2.360220432,walk
1.70E+18,7.825276123,0.188174963,-0.03101635,1.041935086,-0.666436434,-0.636476755,0.676023483,0.363530219,9.665768623,1.615905404,12.13899994,-20.04459953,32.54959869,0.58481431,0.570886195,0.431264311,0.382220119,-1.907420635,-1.498678565,2.460832596,0.413958311,9.435198784,2.233400822,walk
1.70E+18,7.835129883,0.67085433,0.052640915,1.656395197,-0.767700136,-0.451525658,0.727154672,0.288814336,9.679367065,1.548170447,12.06579971,-20.00799942,32.51300049,0.583110094,0.571898103,0.431109846,0.383483291,-1.953844786,-1.50158596,2.416254997,0.593719125,9.487840652,2.175973177,walk
1.70E+18,7.844972412,0.656262398,-0.009513855,1.960781574,-0.830548882,-0.25752008,0.720763266,0.21787259,9.692733765,1.474389195,12.15119934,-20.02019882,32.50080109,0.581363559,0.572366714,0.431443125,0.385057956,-1.995094895,-1.503963351,2.378255844,0.581754982,9.535696983,2.171187401,walk
1.70E+18,7.854825439,0.301220357,-0.190132141,2.009310246,-0.85351795,-0.043807708,0.665837228,0.154348552,9.705284119,1.397861838,12.17560005,-20.00799942,32.52519989,0.579690039,0.572463155,0.432102501,0.386694789,-2.030814171,-1.505760908,2.346477032,0.428315252,9.653244972,2.103889227,walk
1.70E+18,7.864679443,-0.088948727,-0.287987709,1.791125178,-0.860441983,0.13102366,0.564040899,0.101889893,9.716896057,1.319821239,12.28539944,-20.00799942,32.50080109,0.57820195,0.57220912,0.432997584,0.388294101,-2.057534456,-1.50699985,2.32406044,0.102592275,9.878170013,2.00099802,walk
1.70E+18,7.874532471,-0.17341423,-0.386843681,1.403010368,-0.850854874,0.228559062,0.439874649,0.062199704,9.727524757,1.241680622,12.35859966,-20.03240013,32.43980026,0.577166855,0.571780562,0.433766484,0.389605016,-2.071228981,-1.507869601,2.313965559,-0.331106842,10.09860897,1.933998942,walk
1.70E+18,7.884386719,0.083799139,-0.455657005,1.183359981,-0.828418434,0.199265152,0.332752168,0.032860756,9.737131119,1.165162683,12.41959953,-20.15439987,32.36660004,0.576726377,0.571277976,0.434148192,0.390568137,-2.069383621,-1.508674741,2.318134069,-0.597009242,10.2089777,1.965105653,walk
1.70E+18,7.89423999,0.405564219,-0.408628464,1.131735682,-0.806048512,0.087881722,0.275695622,0.008385999,9.745808601,1.090657711,12.63920021,-20.19099998,32.25679779,0.576976359,0.570788085,0.433971047,0.391111642,-2.0506742,-1.509544969,2.337462664,-0.620937467,10.27358437,2.242972136,walk
1.70E+18,7.904095459,0.612059891,-0.363178253,1.147067904,-0.779950321,0.008987904,0.293271959,-0.018181276,9.753586769,1.018620729,12.83440018,-20.37400055,32.06159973,0.577915013,0.570300639,0.433279455,0.391203701,-2.014507294,-1.510317087,2.372568846,-0.426819742,10.328619,2.693420887,walk
1.70E+18,7.91394873,0.633883417,-0.321718216,1.21258831,-0.755449951,0.007922671,0.365241766,-0.051650714,9.760481834,0.949054062,13.00519943,-20.50819969,31.95179939,0.579466462,0.569818914,0.432207137,0.390796632,-1.96335566,-1.510655284,2.421137333,-0.213559419,10.36929703,3.026322365,walk
1.70E+18,7.923770264,0.520015001,-0.210124969,1.213105559,-0.729817748,0.068174914,0.427091867,-0.09070877,9.766472816,0.882151365,13.13939953,-20.59359932,31.76879883,0.581632137,0.569378793,0.430857778,0.389709383,-1.900710821,-1.510069013,2.479556799,-0.122632161,10.29033375,3.299403429,walk
1.70E+18,7.933620361,0.236171708,0.009709358,1.173942089,-0.688806295,0.135817215,0.449461758,-0.132238418,9.771503448,0.818912983,13.13939953,-20.70339966,31.50039864,0.584236264,0.569047868,0.429452747,0.387843847,-1.837316513,-1.508145094,2.537315369,-0.242273286,10.12732315,3.577269793,walk
1.70E+18,7.943502197,-0.156806231,0.225253105,1.164708972,-0.625358343,0.157188445,0.424961388,-0.172432646,9.775512695,0.761579931,13.17599964,-20.88640022,31.30519867,0.586783051,0.568820775,0.428486705,0.385392874,-1.789474487,-1.504758,2.579314232,-0.39810586,9.916754723,3.843172312,walk
1.70E+18,7.953355713,-0.388132572,0.331198692,1.246851206,-0.55818212,0.101729751,0.352991581,-0.20664154,9.778658867,0.711007833,13.37119961,-21.1182003,31.13439941,0.588993907,0.568716407,0.428119183,0.382572591,-1.762835026,-1.500274539,2.600551128,-0.553639352,9.674779892,3.969991922,walk
1.70E+18,7.963202881,-0.385030329,0.392084122,1.569139838,-0.496398598,-0.022969088,0.26664114,-0.233397603,9.781159401,0.666957021,13.45660019,-21.3987999,30.90259933,0.590911031,0.568804443,0.427986801,0.379622161,-1.750365019,-1.495575309,2.607820034,-0.61615181,9.435198784,4.101896286,walk
1.70E+18,7.973055664,-0.170683593,0.443699837,2.057725668,-0.440939903,-0.185550272,0.192008257,-0.253465593,9.783172607,0.629021049,13.39559937,-21.67939949,30.63419914,0.592854202,0.569044352,0.427586287,0.376672804,-1.738827348,-1.491288185,2.613700867,-0.692722142,9.238688469,4.211966038,walk
1.70E+18,7.982927734,0.058881298,0.481259346,2.423108816,-0.385547787,-0.327359438,0.148866311,-0.269619823,9.784755707,0.596851528,13.31019974,-21.93560028,30.36579895,0.595446587,0.569302917,0.426515788,0.373392254,-1.715250731,-1.487037659,2.629914761,-0.747757077,9.200403214,4.286442757,walk
1.70E+18,7.992782471,0.1634247,0.399653435,2.72215867,-0.324762911,-0.412112027,0.118440598,-0.282953471,9.785918236,0.571080506,13.13939953,-22.21619987,30.12179947,0.599061489,0.56938237,0.424588591,0.369666845,-1.672370672,-1.482481837,2.663239956,-0.326321185,9.461520195,4.518546581,walk
1.70E+18,8.002621094,0.053266093,0.234963417,3.018661261,-0.256521434,-0.427557915,0.075831279,-0.292438328,9.786700249,0.552596927,12.98079967,-22.61879921,29.88999939,0.603713155,0.568927407,0.421801507,0.365972102,-1.605130076,-1.477736473,2.719552994,0.442672193,10.06032372,4.949852943,walk
1.70E+18,8.012473877,-0.098933041,0.023097038,3.296181679,-0.19314006,-0.360381633,0.013448567,-0.295893729,9.787240028,0.541073263,12.84659958,-22.98480034,29.64599991,0.609231234,0.567563057,0.418357581,0.36288625,-1.512616873,-1.472642183,2.801110506,0.646361232,10.88913727,5.277968407,walk
1.70E+18,8.02232666,-0.259463966,-0.219283104,3.429596424,-0.147801086,-0.218572497,-0.068108335,-0.291123986,9.787734032,0.534692705,12.51719952,-23.35079956,29.37759972,0.615270317,0.56511277,0.414798826,0.360599399,-1.405323029,-1.46631372,2.898695707,0.035593238,11.67248821,5.249254704,walk
1.70E+18,8.032179932,-0.335906148,-0.458722115,3.563615322,-0.113713622,-0.039546777,-0.155990064,-0.277134866,9.78826046,0.532484949,12.19999981,-23.71679878,29.15799904,0.621390343,0.56172508,0.41169548,0.358951062,-1.301246285,-1.458115101,2.995023012,-0.860518873,12.24975681,4.501796722,walk
1.70E+18,8.042025146,-0.435509682,-0.654507637,3.670978546,-0.068907261,0.13102366,-0.239677429,-0.254460752,9.788720131,0.535344958,11.79739952,-24.08279991,28.88959885,0.627295852,0.557693779,0.409371316,0.357620865,-1.213784456,-1.448060513,3.076696634,-1.387238979,12.44148159,2.827419043,walk
1.70E+18,8.051877197,-0.51991719,-0.691854477,3.735963345,-0.008188979,0.297865778,-0.2977992,-0.225486293,9.788920403,0.544587493,11.40699959,-24.49759865,28.70660019,0.632787645,0.553339481,0.407884061,0.356406718,-1.147321701,-1.436815381,3.139068604,-1.428215981,12.29282761,1.344766378,walk
1.70E+18,8.061739502,-0.131338745,-0.429888725,3.949680805,0.079759322,0.464175284,-0.315908164,-0.192811504,9.788573265,0.563067734,10.90679932,-24.85140038,28.53579903,0.637717783,0.548825741,0.407273561,0.355295002,-1.100334048,-1.425040364,-3.099502087,-1.262812138,11.79960632,0.539880633,walk
1.70E+18,8.071592529,0.606210887,0.169114113,4.351243496,0.181622237,0.580352247,-0.272766232,-0.161714867,9.787409782,0.592324436,10.4187994,-25.15639877,28.34059906,0.642052352,0.54416436,0.407623202,0.354255974,-1.070067286,-1.412961602,-3.069806576,-1.054337502,11.21007538,0.012861421,walk
1.70E+18,8.081442383,0.788324475,0.996915817,4.639397144,0.282353342,0.597396016,-0.163513273,-0.14039126,9.785274506,0.63172996,9.821000099,-25.44919968,28.1697998,0.645832598,0.53923738,0.408988655,0.353343487,-1.052747369,-1.400538445,-3.05106616,-0.798006356,10.87717342,-0.679561615,walk
1.70E+18,8.09129541,0.168944985,1.778065681,4.563197613,0.361713201,0.564906359,-0.045671865,-0.131887019,9.782274246,0.678312421,9.308599472,-25.76639938,28.07219887,0.649190962,0.533801019,0.411364466,0.352685124,-1.04390955,-1.387465477,-3.038580894,-0.465104908,10.74317551,-1.149153113,walk
1.70E+18,8.101129395,-0.727144718,2.352196693,3.767959595,0.387345344,0.551590979,0.018774733,-0.131628707,9.77891922,0.725129843,8.954799652,-26.03479958,27.91359901,0.65227133,0.527695358,0.414631516,0.352364063,-1.039901137,-1.373517513,-3.028723001,-0.072382882,10.58973598,-1.54905355,walk
1.70E+18,8.110980469,-1.255448103,2.54035759,2.049668312,0.388943195,0.606983066,0.000665771,-0.130261838,9.775670052,0.767915547,8.600999832,-26.29100037,27.68179893,0.655189753,0.52067852,0.418756574,0.352509946,-1.038149357,-1.358350515,-3.018701077,0.275174618,10.50598717,-1.752742529,walk
1.70E+18,8.120880371,-1.308413148,2.389183998,0.521824419,0.436346084,0.774357855,-0.095804393,-0.118102588,9.77227211,0.811874568,8.405799866,-26.51059914,27.55979919,0.657920897,0.512658119,0.423776567,0.35317874,-1.038356781,-1.341888189,-3.008007526,0.533898532,10.4413805,-1.84606266,walk
1.70E+18,8.130736084,-1.17388761,1.894938469,-0.332746446,0.507250667,0.990799844,-0.260516047,-0.087705806,9.768431664,0.86049217,8.247200012,-26.71800041,27.2791996,0.660245717,0.504076183,0.429470479,0.354313284,-1.0410285,-1.325076461,-2.997641563,0.68225354,10.50598717,-1.980359793,walk
1.70E+18,8.14056543,-1.02268064,1.306876183,-0.911003113,0.542935967,1.145857811,-0.509913743,-0.031280752,9.764215469,0.910754681,8.234999657,-26.99860001,27.04739952,0.661899328,0.495553911,0.435556293,0.355817854,-1.046711683,-1.309171557,-2.988871813,0.780658364,10.76949692,-2.06410861,walk
1.70E+18,8.150418457,-0.854777157,0.9767313,-1.652836084,0.551524401,1.148520947,-0.818032384,0.055881128,9.759447098,0.959397972,8.344799995,-27.2791996,26.75459862,0.662810087,0.487600058,0.441710681,0.357520074,-1.055120349,-1.295017481,-2.982345104,0.838086128,11.05693436,-2.145763636,walk
1.70E+18,8.160270508,-0.636042953,0.847434998,-2.172618866,0.582948744,1.029148221,-1.08400774,0.168468177,9.753170967,1.008792162,8.442399979,-27.44999886,26.42519951,0.663064063,0.480538845,0.447541237,0.359353989,-1.064534187,-1.283126354,-2.977214098,0.900299549,11.38983536,-2.088036776,walk
1.70E+18,8.170123291,-0.370217353,0.701966286,-2.627653837,0.651722908,0.850055933,-1.222554684,0.293646038,9.744457245,1.062879682,8.552199364,-27.64519882,26.05920029,0.663064837,0.47458002,0.452557564,0.360985428,-1.073045969,-1.27335012,-2.973046303,1.060917735,11.58634663,-1.81495595,walk
1.70E+18,8.179983154,-0.15068996,0.629164696,-2.894287109,0.744464755,0.639539301,-1.243859291,0.419583201,9.732879639,1.124901414,8.808400154,-27.8769989,25.72979927,0.663384974,0.469946772,0.456246436,0.36181435,-1.079364896,-1.265188694,-2.970517159,1.410568953,11.54806137,-1.232901812,walk
1.70E+18,8.189836914,-0.012481451,0.578314781,-3.058152199,0.824889839,0.445533723,-1.186336756,0.538306296,9.718763351,1.194255829,8.979199409,-28.05999947,25.41259956,0.664513588,0.46658498,0.458439142,0.361322075,-1.083296299,-1.257726312,-2.970603228,1.812862277,11.27019501,-0.154935271,walk
1.70E+18,8.199697021,0.027074695,0.658764839,-3.268815517,0.887805164,0.264843553,-1.087203503,0.645641387,9.702664375,1.269579887,9.259799957,-28.29179955,25.09539986,0.666849732,0.464032352,0.459345907,0.35914731,-1.0853616,-1.249495268,-2.9739573,2.100599289,11.00907803,1.01874423,walk
1.70E+18,8.209551514,0.029460728,0.939324379,-3.436644554,0.960307598,0.07350108,-0.977883935,0.739980042,9.684751511,1.35217917,9.564800262,-28.42599869,24.87579918,0.670694768,0.461768597,0.459203094,0.355064481,-1.085783839,-1.239142179,-2.980617523,2.184347868,10.95852947,1.919641972,walk
1.70E+18,8.219401367,0.002739429,1.2452631,-3.611121655,1.043994904,-0.13974525,-0.891000867,0.822804511,9.664856911,1.443581581,9.857600212,-28.60899925,24.53419876,0.676091492,0.4596183,0.458038658,0.349072933,-1.084187865,-1.226359606,-2.990081787,2.146062851,10.86760235,2.621337175,walk
1.70E+18,8.229255127,-0.012548029,1.598683357,-3.657325268,1.135671616,-0.369436115,-0.861174345,0.898990095,9.642310143,1.54534018,10.18700027,-28.80419922,24.21699905,0.682727814,0.457809687,0.455571741,0.341683149,-1.078784943,-1.212344766,-3.000246048,1.884945989,10.76231766,2.947359324,walk
1.70E+18,8.239074951,0.07231915,1.818442345,-3.498684406,1.224152446,-0.607182801,-0.887272537,0.973178148,9.616436005,1.657546759,10.65059948,-28.97500038,23.96080017,0.689989746,0.456842214,0.451453298,0.333765298,-1.067837,-1.199318171,-3.008682966,1.513460279,10.53948689,3.059821844,walk
1.70E+18,8.248925293,0.343661189,1.807787895,-3.042841196,1.305176735,-0.840069413,-0.95817709,1.050033808,9.586177826,1.781292677,10.9921999,-29.09700012,23.71679878,0.697274685,0.456809372,0.445860207,0.326101094,-1.051614881,-1.188563943,-3.014119864,1.072881818,10.19222832,2.995215654,walk
1.70E+18,8.258818604,0.664887786,1.562919617,-2.103567839,1.373351693,-1.083674908,-1.03707087,1.129630089,9.550840378,1.917229652,11.24839973,-29.20679855,23.49720001,0.704083145,0.45729351,0.439621627,0.319190204,-1.032737732,-1.179960966,-3.016845465,0.732502818,9.710672379,2.872882605,walk
1.70E+18,8.26867334,0.874893904,1.338335037,-1.073993444,1.377612591,-1.315496206,-1.063169122,1.205479145,9.5120821,2.058517218,11.54119968,-29.25559998,23.33860016,0.710194409,0.457864881,0.433487982,0.313164175,-1.013720989,-1.172832489,-3.017787933,0.433100909,9.303294182,2.915953398,walk
1.70E+18,8.278494873,0.893407106,1.32461834,-0.313855886,1.301448464,-1.456240177,-0.992331147,1.269314647,9.472939491,2.196051836,11.77299976,-29.23119926,23.19219971,0.715539455,0.458524287,0.427735507,0.307897866,-0.996026337,-1.167015553,-3.018163681,0.191126704,8.92253685,3.086143017,walk
1.70E+18,8.288346436,0.806324124,1.2677145,0.258024216,1.159639359,-1.504708171,-0.853185058,1.316794753,9.436090469,2.323067904,12.0170002,-29.26779938,23.09459877,0.720238447,0.459316194,0.42230323,0.303224653,-0.979581833,-1.162352085,-3.018297434,0.061914288,8.457730293,3.301796198,walk
1.70E+18,8.298214355,0.511803627,1.192097664,0.470815182,0.975220859,-1.463164091,-0.709245443,1.349184513,9.403671265,2.433323622,12.35859966,-29.13360023,23.13119888,0.724543452,0.460074246,0.417091072,0.299004197,-0.963661909,-1.15827167,-3.017818451,0.100199446,8.105687141,3.459722519,walk
1.70E+18,8.308067383,0.116639853,0.994836807,0.489012003,0.806248248,-1.26383245,-0.584013999,1.372254133,9.376021385,2.525380135,12.62699986,-29.0481987,23.167799,0.728753328,0.460899711,0.41175729,0.294866025,-0.947463632,-1.154494882,-3.017102242,0.232103795,7.767999649,3.332902908,walk
1.70E+18,8.317906006,-0.344815016,0.670055389,0.346511841,0.690603912,-0.88008219,-0.470500112,1.392333031,9.352252007,2.60138154,12.94419956,-28.91399956,23.21660042,0.732962847,0.461887807,0.406105757,0.290694416,-0.930461347,-1.15106535,-3.016149998,0.454636306,7.482655525,2.654836655,walk
1.70E+18,8.327757813,-0.707846999,0.210906029,0.155988932,0.669299245,-0.373697072,-0.368171155,1.414746284,9.329973221,2.668420792,13.45660019,-28.73099899,23.36299896,0.737048447,0.463161767,0.400144607,0.286574602,-0.912782133,-1.148348093,-3.014971495,0.61764735,7.374978542,1.837986946,walk
1.70E+18,8.33761084,-1.038002253,-0.170032501,0.127268553,0.786541462,0.138480291,-0.315908164,1.445016503,9.304798126,2.739168167,13.92019939,-28.54800034,23.52159882,0.740764856,0.464835644,0.394027442,0.282732368,-0.894900799,-1.146859288,-3.01346755,0.751944542,7.403692245,1.320538998,walk
1.70E+18,8.347462891,-1.32417798,-0.516274452,0.210564137,1.024820805,0.625158608,-0.322832197,1.488694429,9.272236824,2.824854851,14.49359989,-28.42599869,23.53380013,0.743816316,0.466929287,0.388078332,0.279480785,-0.877660096,-1.147013903,-3.011476278,0.81894356,7.374978542,0.89192462,walk
1.70E+18,8.357352295,-1.514010668,-0.936266899,0.32294035,1.279011965,1.091530919,-0.350594819,1.548501372,9.230665207,2.927005291,14.93279934,-28.23079872,23.60700035,0.745832145,0.469398052,0.382775038,0.277278215,-0.862144232,-1.149243474,-3.008597851,0.828514814,7.44437027,0.393619329,walk
1.70E+18,8.367207764,-1.55324924,-1.237202644,0.374865294,1.406440496,1.546185732,-0.381486565,1.625249863,9.183351517,3.032326937,15.43299961,-28.07219887,23.50939941,0.746615469,0.472341806,0.378409714,0.276160538,-0.84964174,-1.153823256,-3.005631685,0.897906721,7.514061451,-0.023330022,walk
1.70E+18,8.377033447,-1.512975812,-1.524764538,0.161121845,1.298785329,1.946979642,-0.386280119,1.715871692,9.137755394,3.118907928,15.81120014,-28.07219887,23.37520027,0.746054769,0.475854605,0.375203907,0.276019365,-0.841470361,-1.160880327,-3.003736973,1.044167995,7.32951498,-0.289232433,walk
1.70E+18,8.386885742,-1.389930487,-1.765521526,-0.572976828,1.053582072,2.183128595,-0.375627786,1.814894915,9.098945618,3.175805092,16.17720032,-28.01119995,23.24099922,0.744234145,0.480071098,0.373090923,0.276496619,-0.838367045,-1.170350671,-3.004342794,1.348355532,6.967899323,-0.145363972,walk
1.70E+18,8.396730957,-1.32715416,-1.835383415,-1.420662522,0.827020288,2.184726238,-0.369769007,1.914561152,9.067141533,3.208080053,16.44560051,-28.02339935,23.05799866,0.741420209,0.484998047,0.371786237,0.277214706,-0.840055823,-1.181836247,-3.008205891,1.861017823,6.479165554,0.329013109,walk
1.70E+18,8.406583008,-1.287979364,-1.773478508,-1.954071403,0.673027515,2.04131937,-0.358051449,2.009342194,9.040280342,3.225875616,16.55539894,-28.14539909,22.80179977,0.738109112,0.490674853,0.370645523,0.27758792,-0.845162749,-1.194730401,-3.015882254,2.543570518,5.947360516,0.808175862,walk
1.70E+18,8.416433594,-1.306068778,-1.77340889,-2.388781548,0.554720104,1.859563947,-0.313777715,2.09465766,9.01802063,3.233899593,16.60420036,-28.26739883,22.52120018,0.734872043,0.496913373,0.369052917,0.27720055,-0.851551533,-1.208086491,-3.02680254,3.334099293,5.437091351,1.320538998,walk
1.70E+18,8.426285156,-1.372349739,-1.679178238,-2.884734869,0.454455048,1.687928319,-0.274364084,2.170969009,8.99995327,3.233900309,16.54319954,-28.37719917,22.32600021,0.732427359,0.503209591,0.366436362,0.275780112,-0.85594219,-1.220411301,-3.038897276,4.007379532,5.183153152,1.694417477,walk
1.70E+18,8.436153809,-1.374375463,-1.586968422,-3.29429388,0.397997677,1.575479627,-0.266374826,2.243108988,8.983984947,3.229064226,16.59199905,-28.53579903,22.14299965,0.73136425,0.508850098,0.362641454,0.273256421,-0.8557567,-1.230026722,-3.049786568,4.527220249,5.367699623,1.849951029,walk
1.70E+18,8.44600708,-1.299164653,-1.749272823,-3.548316002,0.364376277,1.565892577,-0.264776975,2.314907074,8.969072342,3.219833851,16.4211998,-28.63339996,22.09420013,0.731855869,0.513038456,0.358437717,0.269631058,-0.852791369,-1.235255241,-3.05987668,4.699503899,5.841777325,1.929213285,walk
1.70E+18,8.455859375,-1.066600323,-2.089676857,-3.386544704,0.320701718,1.629340529,-0.24713406,2.387679577,8.955418587,3.204660654,16.37240028,-28.67000008,22.08199883,0.733683884,0.515399039,0.354855001,0.264857888,-0.851608217,-1.235315919,-3.072100163,4.55354166,6.43848753,1.92203474,walk
1.70E+18,8.465712402,-0.623770833,-2.559508801,-2.885712147,0.235416502,1.668221474,-0.204524741,2.458830357,8.944527626,3.181190729,16.21380043,-28.68219948,22.05760002,0.736340344,0.516130388,0.352535248,0.25909695,-0.85556668,-1.230862856,-3.088606119,4.366602421,7.281658173,1.955534339,walk
1.70E+18,8.475557617,-0.004252195,-3.077103615,-2.369297743,0.104858875,1.642655849,-0.128826618,2.523647547,8.938530922,3.14710331,16.23819923,-28.64559937,22.16740036,0.739045501,0.515798748,0.351846904,0.25291732,-0.86623311,-1.223727703,-3.109628677,4.237389565,8.359624863,2.159223318,walk
1.70E+18,8.485409912,0.735156059,-3.579654694,-1.80830133,-0.057189699,1.528010249,-0.019573657,2.576643705,8.939155579,3.102063894,16.29920006,-28.58459854,22.2894001,0.740986168,0.514589548,0.353294224,0.24762921,-0.88305974,-1.215603352,-3.131883144,4.036093712,9.715457916,2.621337175,walk
1.70E+18,8.495266357,1.37552309,-3.834481716,-1.375860333,-0.249064803,1.286069155,0.112581812,2.611486435,8.948122978,3.046574354,16.38459969,-28.42599869,22.46019936,0.741977513,0.512428164,0.356657743,0.244298965,-0.901961982,-1.207365036,3.133169413,3.77497673,11.20050335,3.16032052,walk
1.70E+18,8.505119385,1.886605501,-3.661132813,-1.153525114,-0.436146349,0.960374177,0.278358698,2.622284651,8.966406822,2.982876539,16.4090004,-28.24300003,22.76519966,0.742562473,0.509435415,0.360612273,0.242971987,-0.916558683,-1.199375391,3.123479605,3.715156317,12.64038467,3.598805189,walk
1.70E+18,8.514980713,2.078940392,-3.208638191,-1.00321269,-0.590205669,0.62089771,0.485147059,2.604340553,8.994211197,2.914096594,16.36019897,-28.07219887,22.94820023,0.743429065,0.506030619,0.363595963,0.242990196,-0.922015071,-1.191961527,3.123504162,3.652643681,13.43091393,4.0157547,walk
1.70E+18,8.524834473,1.982590199,-2.643941879,-0.936798692,-0.703186929,0.328224927,0.717567623,2.556297302,9.030820847,2.842535496,16.44560051,-27.92580032,23.167799,0.744716644,0.502915144,0.364757687,0.243773103,-0.917723656,-1.186052918,3.131466389,3.398705482,13.27986622,4.645665169,walk
1.70E+18,8.53465918,1.871290207,-1.84088707,-0.82869482,-0.767167509,0.155057982,0.945128024,2.482100248,9.074131966,2.769422054,16.4211998,-27.73060036,23.39959908,0.745770037,0.500995278,0.364500821,0.244887635,-0.909167409,-1.183088303,-3.141504526,3.259921789,12.55872917,5.651846886,walk
1.70E+18,8.544509766,1.834724188,-0.809293747,-0.549247265,-0.781015515,0.16943863,1.131676912,2.390078545,9.1213274,2.694306612,16.31139946,-27.55979919,23.71679878,0.745740592,0.500860095,0.363978237,0.246028468,-0.903950572,-1.183997631,-3.135382891,3.269493103,11.61984539,6.545267105,walk
1.70E+18,8.554405762,1.731237411,0.496993065,-0.010419607,-0.749058545,0.358650655,1.226016641,2.29234457,9.168618202,2.617630482,16.15279961,-27.46220016,23.99740028,0.744338214,0.502548754,0.363684565,0.247262821,-0.90433687,-1.188965082,-3.134733438,3.049054146,10.51077271,6.988537788,walk
1.70E+18,8.564260986,1.555043459,1.934319496,0.602963924,-0.66537118,0.689072609,1.168494105,2.206585169,9.210804939,2.542135477,16.10400009,-27.31579971,24.24139977,0.74190712,0.505973935,0.362757862,0.248939604,-0.905250788,-1.198187947,-3.13530755,2.649153709,9.384949684,6.713063717,walk
1.70E+18,8.57411792,1.551136971,3.332998276,1.106767654,-0.496398598,1.057376981,0.941399693,2.148886681,9.242745399,2.474735737,16.00639915,-27.21819878,24.58300018,0.738957822,0.510558784,0.360388577,0.251776069,-0.899439633,-1.211195111,-3.129928112,2.752045155,8.771489143,5.730810165,walk
1.70E+18,8.583973389,1.511030436,4.095542908,1.563847065,-0.18668209,1.27754724,0.621097445,2.124393702,9.259756088,2.43192482,16.00639915,-27.14499855,24.72939873,0.735972881,0.515429735,0.35677731,0.255707055,-0.884880126,-1.226003766,-3.11614728,3.815654755,9.037391663,4.566701889,walk
1.70E+18,8.593800781,1.252118111,3.933709145,2.194013119,0.237014353,1.302580237,0.32103461,2.126900434,9.259951591,2.428987503,16.00639915,-26.99860001,24.97340012,0.732955873,0.519668221,0.353548706,0.260238141,-0.868015707,-1.240053892,-3.098375797,5.643472195,10.60887814,3.560520172,walk
1.70E+18,8.603653564,1.093399763,3.217658043,3.157683849,0.654918551,1.213034153,0.135018289,2.144289017,9.245482445,2.468492985,16.05520058,-26.79119873,25.2173996,0.729806662,0.522646129,0.352313846,0.264760613,-0.85765028,-1.251380086,-3.083673477,6.742974281,13.09531975,3.117249727,walk
1.70E+18,8.613513916,1.084700346,2.2943573,3.975297213,0.941666007,0.965167701,0.091809772,2.160511017,9.221917152,2.541421413,16.11619949,-26.62039948,25.49799919,0.726472914,0.524074733,0.353852004,0.269019544,-0.859003305,-1.259177089,-3.076376677,6.129813194,14.32433319,2.959323406,walk
1.70E+18,8.623367188,0.858472347,1.207123756,4.32194376,1.042929649,0.464707911,0.089679308,2.16493082,9.194513321,2.635218143,16.32359886,-26.42519951,25.72979927,0.722911596,0.524033487,0.358103096,0.273038268,-0.872730732,-1.263687253,-3.077212334,4.508078098,14.26929855,2.427518606,walk
1.70E+18,8.633214355,0.461042643,0.106939316,3.944583654,0.971492529,-0.144538805,-0.001464695,2.161633015,9.16610527,2.735003471,16.48220062,-26.14459991,25.92499924,0.719029367,0.52303797,0.364215881,0.277082741,-0.894949138,-1.266290307,-3.083312511,2.644368172,13.87388515,1.533799291,walk
1.70E+18,8.643066895,0.559368134,-0.478995323,2.871692657,0.790269732,-0.52828902,-0.196535498,2.165982723,9.13795948,2.824287653,16.57979965,-25.86400032,26.16899872,0.714751363,0.52200377,0.370908678,0.281192631,-0.920857906,-1.268984199,-3.092004299,1.199701428,12.87039471,0.278763831,walk
1.70E+18,8.652927979,1.596853495,-0.187678337,1.64049983,0.558981001,-0.550126255,-0.415041417,2.191413403,9.111322403,2.889967203,16.62859917,-25.57119942,26.36419868,0.7101174,0.521722078,0.377118438,0.285168499,-0.947362363,-1.273228765,-3.102345228,0.33499518,10.84606647,-1.427019596,walk
1.70E+18,8.662781494,3.377717733,1.400411606,0.599019766,0.286614269,-0.356120706,-0.537143767,2.236469269,9.089733124,2.923243523,16.54319954,-25.2052002,26.65699959,0.705423176,0.522630513,0.381990314,0.288650155,-0.971962929,-1.279507279,-3.113867044,-0.072382882,8.587242126,-2.988934517,walk
1.70E+18,8.672630859,4.432514191,3.887195587,0.150326967,0.016377958,-0.163180381,-0.423563272,2.27794528,9.078781128,2.925249815,16.53100014,-24.9489994,26.93759918,0.700994134,0.524763107,0.385042578,0.291501492,-0.992303848,-1.287691116,-3.125234127,-0.247058943,6.931707859,-3.568595886,walk
1.70E+18,8.682484131,3.805716753,5.099645615,0.006728888,-0.186149478,-0.103993371,-0.077695437,2.288068533,9.082148552,2.906838179,16.45779991,-24.76599884,27.20599937,0.697036386,0.528032064,0.386040062,0.293760926,-1.006383657,-1.297632217,-3.134768486,-0.592223585,5.784349442,-3.194717407,walk
1.70E+18,8.692331055,2.210564613,5.014328957,-0.493597984,-0.363111317,-0.122102335,0.314643204,2.259026527,9.100413322,2.872224569,16.4211998,-24.52199936,27.44999886,0.69370234,0.532391071,0.384818137,0.295384139,-1.01272893,-1.309206963,-3.141322613,-1.092622638,4.986642361,-1.980359793,walk
1.70E+18,8.702183594,0.400102139,4.575921059,-1.324805498,-0.660045028,-0.057655737,0.575758457,2.204478502,9.133727074,2.808148146,16.4211998,-24.30239868,27.5719986,0.690886974,0.537459612,0.381911784,0.29657343,-1.012251854,-1.321869969,3.138642311,-1.339382529,4.84546566,-0.492622375,walk
1.70E+18,8.712047119,-0.986851931,3.520101547,-2.473680258,-1.072556496,0.071903229,0.620564818,2.146671772,9.179389,2.702035427,16.25040054,-24.08279991,27.66959953,0.688272238,0.542641759,0.378466845,0.297630817,-1.009010911,-1.334694982,3.137139082,-1.353739381,5.489733219,0.522831738,walk
1.70E+18,8.721900879,-1.803480983,1.445077896,-4.039650917,-1.368891001,0.143273845,0.513442338,2.099449873,9.229485512,2.565015793,16.05520058,-23.88759995,27.73060036,0.685479403,0.547317564,0.375690907,0.299028069,-1.007353663,-1.346874356,3.135786533,-1.44496572,7.034898758,1.107577801,walk
1.70E+18,8.731744385,-2.16750598,-0.854175568,-5.462416649,-1.356640816,-0.020306004,0.402058899,2.058381081,9.275143623,2.430050611,16.04299927,-23.78999901,27.79159927,0.682107985,0.550986052,0.374580175,0.301384777,-1.010584593,-1.358025432,3.133906841,-1.562214136,9.0421772,1.514656782,walk
1.70E+18,8.741597168,-2.29560113,-2.535362244,-5.936690807,-1.057110667,-0.389142931,0.340741426,2.014599085,9.310619354,2.328979015,16.21380043,-23.72900009,27.84039879,0.677986503,0.55342257,0.375500351,0.305052847,-1.019590139,-1.368068457,3.131771803,-1.672582984,10.47727299,1.775773525,walk
1.70E+18,8.751456787,-2.586401224,-3.694252014,-5.506705284,-0.636010706,-0.849656463,0.300195992,1.963966966,9.334346771,2.276664257,16.31139946,-23.63139915,27.8647995,0.673184156,0.554736674,0.378266454,0.309846342,-1.034600735,-1.377044916,3.128560066,-1.720439434,11.33480072,1.871486425,walk
1.70E+18,8.761310303,-3.024787903,-4.491619587,-4.283169746,-0.253325731,-1.310702682,0.266108513,1.905453563,9.347811699,2.271135569,16.44560051,-23.52159882,27.92580032,0.667937398,0.555406094,0.382238507,0.315083206,-1.056119561,-1.385202765,3.121629715,-1.612463355,11.746665,1.641775489,walk
1.70E+18,8.771144531,-3.201776981,-4.627180576,-2.815335035,-0.041743819,-1.643321633,0.260782361,1.839296937,9.355496407,2.293914795,16.46999931,-23.4484005,27.95019913,0.662786722,0.556166112,0.386257917,0.319683909,-1.083106875,-1.392796874,3.108362675,-1.286740422,11.98385429,1.322931767,walk
1.70E+18,8.78099585,-3.137745857,-3.979298592,-1.823940039,-0.028961023,-1.753639817,0.323165059,1.763997078,9.363384247,2.320721626,16.44560051,-23.31419945,28.18199921,0.65832144,0.557591319,0.389364243,0.322645724,-1.1147542,-1.399719715,3.086331606,-0.884447098,12.01017475,1.270289779,walk
1.70E+18,8.790883057,-3.141114712,-2.439036369,-1.251348972,-0.139811829,-1.631071448,0.446266055,1.678659201,9.37567234,2.334368706,16.59199905,-23.21660042,28.38939857,0.655038178,0.559714198,0.39116177,0.323477209,-1.149209976,-1.405272484,3.055927277,-0.405284345,11.75623703,1.545763373,walk
1.70E+18,8.800738037,-3.165933609,-0.446926117,-0.835266352,-0.303990871,-1.326681137,0.575758457,1.587515354,9.393539429,2.326283216,16.7262001,-23.08239937,28.67000008,0.653061628,0.562171936,0.391836464,0.322393149,-1.183774471,-1.408858299,3.020515203,-0.014656039,11.22203922,2.05124712,walk
1.70E+18,8.810579834,-3.185603142,0.964262962,-0.541368484,-0.486811489,-0.914169669,0.657847941,1.49778688,9.416275024,2.293645144,16.82379913,-22.86279869,28.91399956,0.65206641,0.564535081,0.391985357,0.320089072,-1.217180014,-1.410431862,2.983490705,0.212961212,10.71924686,2.417947292,walk
1.70E+18,8.820433594,-3.150508404,1.791962624,-0.387283802,-0.679219186,-0.442471176,0.69359988,1.415202498,9.443040848,2.235304356,16.87260056,-22.63099861,29.17020035,0.651470244,0.566534519,0.39221099,0.317483485,-1.249128461,-1.410636544,2.947622776,0.457029134,10.43390274,2.666800737,walk
1.70E+18,8.830286133,-2.970301151,2.16987896,-0.533295035,-0.872159541,0.037749194,0.698393404,1.343016028,9.47303009,2.151370764,16.89699936,-22.41139984,29.42639923,0.650750518,0.568139434,0.392837226,0.315309733,-1.279978156,-1.410404921,2.91424346,0.639182746,10.2281208,2.848954439,walk
1.70E+18,8.840139893,-2.581767559,2.370957375,-0.749183297,-1.011771679,0.398596883,0.683480144,1.280367494,9.504384041,2.048837662,16.84819984,-22.11859894,29.64599991,0.649420857,0.569419801,0.394071043,0.314199984,-1.310992837,-1.410753131,2.883415699,0.821336389,9.765707016,2.789133787,walk
1.70E+18,8.849995117,-2.120843887,2.362143517,-0.694108605,-1.051251888,0.503588915,0.665837228,1.221963644,9.534586906,1.941350341,16.92140007,-21.88679886,29.90219879,0.647238493,0.570463002,0.395951033,0.314447284,-1.343380928,-1.412280798,2.854449272,0.902692318,9.214759827,2.496910334,walk
1.70E+18,8.859848877,-1.582671404,2.076323509,-0.317920327,-1.008575916,0.325561851,0.643467307,1.163064599,9.561818123,1.841003776,16.9946003,-21.72819901,30.10960007,0.64419353,0.571294487,0.398413509,0.316075861,-1.377540588,-1.415115595,2.826884031,0.900299549,8.596813202,2.077568293,walk
1.70E+18,8.869709473,-1.129146576,1.514710426,0.27465868,-0.93241179,-0.115710936,0.60884726,1.10038662,9.585504532,1.754317999,17.09219933,-21.47200012,30.37800026,0.640482903,0.57199049,0.401153862,0.318879455,-1.41244638,-1.419255853,2.800924063,0.907477975,8.091329575,1.593619823,walk
1.70E+18,8.879563965,-0.834679902,0.988621712,0.713919163,-0.854050577,-0.682281733,0.554986417,1.034071326,9.605819702,1.682057619,17.15320015,-21.31340027,30.57320023,0.6363644,0.572794557,0.403692394,0.322458148,-1.447605252,-1.424789786,2.775623798,0.768694282,7.897212029,1.222433209,walk
1.70E+18,8.88940332,-0.520176232,0.684053421,1.022351623,-0.76876533,-1.187069058,0.515040159,0.964615464,9.623156548,1.623193622,17.11660004,-21.10599899,30.73180008,0.632097542,0.574043036,0.405544162,0.326283991,-1.483988762,-1.431741953,2.748343229,0.437886536,7.957032681,0.934995472,walk
1.70E+18,8.899256348,-0.263466239,0.461206436,1.252793431,-0.677621365,-1.471686006,0.525692523,0.890792906,9.638238907,1.575188756,17.10439873,-20.93519974,30.95139885,0.627869606,0.575976551,0.406533122,0.329790235,-1.525163651,-1.439688325,2.714302063,0.042771704,8.141578674,0.716949463,walk
1.70E+18,8.909098877,-0.003262341,-0.015208244,1.234633923,-0.589673042,-1.399183631,0.587009966,0.813639581,9.651704788,1.533941507,17.20199966,-20.69120026,31.15880013,0.623769283,0.57861656,0.406806082,0.332601309,-1.575499177,-1.447877169,2.66877389,-0.529711127,8.285148621,0.559023201,walk
1.70E+18,8.918950684,0.157698095,-0.577113152,0.978054881,-0.476159155,-1.003715873,0.67116338,0.735252082,9.663493156,1.49889493,17.3118,-20.47159958,31.31739998,0.619817734,0.58167237,0.406717509,0.334759712,-1.636274695,-1.455554008,2.611159801,-1.049551845,8.4146595,0.403190613,walk
1.70E+18,8.928810547,0.230507493,-1.201719284,0.584117651,-0.30984965,-0.452590883,0.714904487,0.661213517,9.672614098,1.474353313,17.40939903,-20.26420021,31.47599983,0.616118252,0.584856868,0.406391203,0.336432666,-1.704483986,-1.462378383,2.544956207,-1.454537034,8.541479111,0.381655216,walk
1.70E+18,8.93866333,0.303226173,-1.708891869,0.111138463,-0.114246242,0.029759947,0.690936744,0.5967713,9.678346634,1.464191556,17.51919937,-20.06900024,31.61019897,0.612789094,0.587857544,0.405822664,0.337965965,-1.773319721,-1.468515396,2.477527618,-1.571785331,8.759525299,0.498903513,walk
1.70E+18,8.948489502,0.219747305,-1.900724411,-0.26433444,0.068041757,0.30692026,0.628021419,0.542261064,9.680822372,1.469016075,17.55579948,-19.91040039,31.70779991,0.609957039,0.590389311,0.405017853,0.33963716,-1.835252166,-1.474244475,2.416861534,-1.231705427,9.190832138,0.887139022,walk
1.70E+18,8.9583396,-0.062187761,-1.836454868,-0.565950513,0.179957807,0.348530918,0.555519044,0.494435996,9.681142807,1.483715415,17.65340042,-19.70299911,31.78100014,0.607678175,0.592398882,0.403972,0.341463625,-1.886891842,-1.479762316,2.366362095,-0.374177635,9.770493507,1.435693622,walk
1.70E+18,8.968255127,-0.411355436,-1.647263527,-0.800142169,0.198133349,0.216841504,0.497463822,0.449075758,9.680781364,1.500400662,17.70219994,-19.54439926,31.92739868,0.605845571,0.594051063,0.402737528,0.343302965,-1.931157589,-1.485077739,2.322958231,0.622433007,10.20179939,2.012962103,walk
1.70E+18,8.978111572,-0.935567975,-1.499956131,-0.967658401,0.121369988,-0.032556184,0.471299022,0.40146631,9.681325912,1.51034677,17.71439934,-19.41020012,32.00059891,0.604133725,0.595601499,0.401533544,0.345039248,-1.977543116,-1.489972949,2.277333498,1.290927768,10.18744278,2.609373093,walk
1.70E+18,8.98794165,-1.40223527,-1.369103432,-1.120537877,-0.014047761,-0.358251184,0.460114092,0.349013507,9.683700562,1.508149147,17.69000053,-19.30039978,32.04940033,0.602270961,0.59739697,0.400390029,0.346517414,-2.037436962,-1.494278669,2.217891216,1.348355532,10.11535835,3.150749207,walk
1.70E+18,8.997795654,-1.749392271,-1.242943764,-1.125469565,-0.16591005,-0.686609268,0.446266055,0.292028099,9.688051224,1.492239237,17.77540016,-19.22719955,32.14699936,0.600077152,0.599543333,0.399415523,0.347739011,-2.117500782,-1.497694254,2.138159513,0.864407182,10.08664513,3.464508057,walk
1.70E+18,9.00761377,-1.807534575,-1.028240204,-0.976998687,-0.323165059,-0.92162627,0.428689718,0.233446255,9.694263458,1.461900353,17.76319885,-19.12960052,32.23239899,0.597559452,0.602001667,0.398603886,0.348757356,-2.216860771,-1.500009418,2.039094687,0.227318153,9.940682411,3.397509098,walk
